Timestamp,ax,ay,az,gx,gy,gz
1764313265040,2.6877,3.725,8.9073,0.0154,-0.0783,-0.3407
1764313265050,2.6877,3.725,8.9073,0.0305,-0.1756,-0.4646
1764313265060,1.7025,3.2495,8.93,0.0305,-0.1756,-0.4646
1764313265070,1.7025,3.2495,8.93,0.2363,-0.3329,-0.4333
1764313265080,2.071,3.591,8.1547,0.2363,-0.3329,-0.4333
1764313265090,2.071,3.591,8.1547,0.4461,-1.2611,-0.4455
1764313265100,2.8427,3.9159,8.3785,0.4461,-1.2611,-0.4455
1764313265110,2.8427,3.9159,8.3785,0.9184,-2.2605,-0.7123
1764313265120,2.8666,3.5737,8.19,0.9184,-2.2605,-0.7123
1764313265130,2.8666,3.5737,8.19,1.6258,-3.5477,-0.9223
1764313265140,2.4778,3.5378,9.1932,1.6258,-3.5477,-0.9223
1764313265150,2.4778,3.5378,9.1932,1.6258,-3.5477,-0.9223
1764313265160,2.4778,3.5378,9.1932,2.4925,-4.0853,-0.8775
1764313265170,2.8319,4.4016,8.4772,2.4925,-4.0853,-0.8775
1764313265180,2.8319,4.4016,8.4772,2.1095,-1.6284,-0.4259
1764313265190,3.8034,5.7159,5.7763,2.1095,-1.6284,-0.4259
1764313265200,3.8034,5.7159,5.7763,-1.9978,6.1215,0.495
1764313265210,9.0036,7.9328,1.0708,-1.9978,6.1215,0.495
1764313265220,9.0036,7.9328,1.0708,-8.8326,15.8154,0.5886
1764313265230,11.8379,9.1711,3.5623,-8.8326,15.8154,0.5886
1764313265240,11.8379,9.1711,3.5623,-12.4279,22.2796,-0.7579
1764313265250,4.4925,3.7071,4.2293,-12.4279,22.2796,-0.7579
1764313265260,4.4925,3.7071,4.2293,-8.0332,16.6332,-1.7181
1764313265270,-7.928,-1.8203,0.6497,-8.0332,16.6332,-1.7181
1764313265280,-7.928,-1.8203,0.6497,-8.0332,16.6332,-1.7181
1764313265290,-15.4176,-6.4923,-0.3601,0.9876,2.0131,-2.9667
1764313265300,-15.4176,-6.4923,-0.3601,0.9876,2.0131,-2.9667
1764313265310,-15.4176,-6.4923,-0.3601,4.224,-6.4142,-2.4499
1764313265320,-12.3392,-8.4389,8.016,4.224,-6.4142,-2.4499
1764313265330,-12.3392,-8.4389,8.016,1.4413,-3.4378,-0.803
1764313265340,-7.5625,-4.5051,11.522,1.4413,-3.4378,-0.803
1764313265350,-7.5625,-4.5051,11.522,-1.0544,0.9164,-0.4336
1764313265360,-7.8849,-2.7338,10.4842,-1.0544,0.9164,-0.4336
1764313265370,-7.8849,-2.7338,10.4842,-0.4953,0.4701,-0.5205
1764313265380,-8.5872,-1.9346,10.1085,-0.4953,0.4701,-0.5205
1764313265390,-8.5872,-1.9346,10.1085,1.243,-1.7504,-0.6507
1764313265400,-8.0961,-1.7037,9.2859,1.243,-1.7504,-0.6507
1764313265410,-8.0961,-1.7037,9.2859,1.243,-1.7504,-0.6507
1764313265420,-7.017,-1.27,8.4084,1.7527,-2.4939,-0.568
1764313265430,-7.017,-1.27,8.4084,1.7527,-2.4939,-0.568
1764313265440,-7.017,-1.27,8.4084,1.0931,-1.8451,-0.378
1764313265450,-5.5178,-0.9846,8.8164,1.0931,-1.8451,-0.378
1764313265460,-5.5178,-0.9846,8.8164,0.5463,-1.2398,-0.2851
1764313265470,-4.3992,-0.6969,9.6921,0.5463,-1.2398,-0.2851
1764313265480,-4.3992,-0.6969,9.6921,0.8041,-1.4638,-0.4447
1764313265490,-4.4967,-0.8584,9.3147,0.8041,-1.4638,-0.4447
1764313265500,-4.4967,-0.8584,9.3147,1.6893,-2.9189,-0.6368
1764313265510,-4.2772,-0.9236,8.6315,1.6893,-2.9189,-0.6368
1764313265520,-4.2772,-0.9236,8.6315,2.7762,-5.0858,-0.7929
1764313265530,-2.5059,-0.4624,8.5328,2.7762,-5.0858,-0.7929
1764313265540,-2.5059,-0.4624,8.5328,3.9205,-7.4846,-1.1162
1764313265550,-0.204,1.0516,10.0851,3.9205,-7.4846,-1.1162
1764313265560,-0.204,1.0516,10.0851,3.9205,-7.4846,-1.1162
1764313265570,-0.204,1.0516,10.0851,5.1733,-9.2019,-1.5638
1764313265580,0.9541,1.7862,12.4971,5.1733,-9.2019,-1.5638
1764313265590,0.9541,1.7862,12.4971,4.9647,-7.2708,-1.4265
1764313265600,1.2269,1.6481,10.0708,4.9647,-7.2708,-1.4265
1764313265610,1.2269,1.6481,10.0708,2.6287,-3.5106,-0.7427
1764313265620,2.2576,2.9133,7.7928,2.6287,-3.5106,-0.7427
1764313265630,2.2576,2.9133,7.7928,0.7753,-1.1278,-0.3225
1764313265640,3.1777,4.6373,8.0913,0.7753,-1.1278,-0.3225
1764313265650,3.1777,4.6373,8.0913,0.0794,0.1323,-0.3755
1764313265660,3.2351,4.5882,7.3208,0.0794,0.1323,-0.3755
1764313265670,3.2351,4.5882,7.3208,0.0794,0.1323,-0.3755
1764313265680,2.1613,4.1366,7.59,-0.202,0.2605,-0.5513
1764313265690,2.1613,4.1366,7.59,-0.202,0.2605,-0.5513
1764313265700,1.9334,3.6544,8.3139,0.0501,-0.3325,-0.5596
1764313265710,1.9334,3.6544,8.3139,0.0501,-0.3325,-0.5596
1764313265720,1.9334,3.6544,8.3139,0.2424,-0.5162,-0.4672
1764313265730,1.8616,3.5426,8.3587,0.2424,-0.5162,-0.4672
1764313265740,1.8616,3.5426,8.3587,0.1009,-0.277,-0.285
1764313265750,2.2193,3.3117,8.3432,0.1009,-0.277,-0.285
1764313265760,2.2193,3.3117,8.3432,-0.1872,0.0638,-0.122
1764313265770,2.3821,3.6838,8.7021,-0.1872,0.0638,-0.122
1764313265780,2.3821,3.6838,8.7021,-0.2784,0.4377,-0.0932
1764313265790,1.7306,3.1932,8.1583,-0.2784,0.4377,-0.0932
1764313265800,1.7306,3.1932,8.1583,-0.2784,0.4377,-0.0932
1764313265810,1.7306,3.1932,8.1583,-0.1616,0.321,0.0704
1764313265820,1.7151,3.999,7.2616,-0.1616,0.321,0.0704
1764313265830,1.7151,3.999,7.2616,-0.1417,-0.4033,0.1055
1764313265840,2.4945,3.7502,8.7081,-0.1417,-0.4033,0.1055
1764313265850,2.4945,3.7502,8.7081,-0.0228,-0.4438,0.0473
1764313265860,3.2608,4.0104,9.1011,-0.0228,-0.4438,0.0473
1764313265870,3.2608,4.0104,9.1011,-0.0785,-0.1622,-0.0863
1764313265880,3.3942,4.0857,9.3876,-0.0785,-0.1622,-0.0863
1764313265890,3.3942,4.0857,9.3876,-0.1031,0.1672,-0.224
1764313265900,2.9755,3.9015,9.1537,-0.1031,0.1672,-0.224
1764313265910,2.9755,3.9015,9.1537,-0.1031,0.1672,-0.224
1764313265920,2.4425,3.9948,8.6967,-0.035,0.2056,-0.2772
1764313265930,2.4425,3.9948,8.6967,0.035,0.0235,-0.279
1764313265940,2.4425,3.9948,8.6967,0.035,0.0235,-0.279
1764313265950,2.1476,3.8363,8.6847,0.035,0.0235,-0.279
1764313265960,2.1476,3.8363,8.6847,0.139,-0.2343,-0.2615
1764313265970,2.1978,3.7777,9.0257,0.139,-0.2343,-0.2615
1764313265980,2.1978,3.7777,9.0257,0.2815,-0.3351,-0.2524
1764313265990,2.4538,3.7603,9.1789,0.2815,-0.3351,-0.2524
1764313266000,2.4538,3.7603,9.1789,0.3606,-0.2043,-0.2434
1764313266010,2.5412,3.8506,8.5502,0.3606,-0.2043,-0.2434
1764313266020,2.5412,3.8506,8.5502,0.3606,-0.2043,-0.2434
1764313266030,2.3629,4.0612,8.0076,0.2162,0.0638,-0.2027
1764313266040,2.3629,4.0612,8.0076,-0.0101,0.1342,-0.1616
1764313266050,2.1392,4.0361,8.1338,-0.0101,0.1342,-0.1616
1764313266060,2.1392,4.0361,8.1338,-0.0047,-0.1636,-0.1562
1764313266070,2.2002,4.069,8.9079,-0.0047,-0.1636,-0.1562
1764313266080,2.2002,4.069,8.9079,-0.0047,-0.1636,-0.1562
1764313266090,2.5878,4.0726,9.4995,0.2268,-0.4412,-0.1666
1764313266100,2.5878,4.0726,9.4995,0.2268,-0.4412,-0.1666
1764313266110,2.5878,4.0726,9.4995,0.4102,-0.3517,-0.1576
1764313266120,2.4754,4.0881,9.3494,0.4102,-0.3517,-0.1576
1764313266130,2.4754,4.0881,9.3494,0.3975,-0.0548,-0.0872
1764313266140,2.254,4.2287,8.5298,0.3975,-0.0548,-0.0872
1764313266150,2.254,4.2287,8.5298,0.279,0.0473,-0.0011
1764313266160,2.4215,4.6146,8.1021,0.279,0.0473,-0.0011
1764313266170,2.4215,4.6146,8.1021,0.2567,-0.1675,-0.0284
1764313266180,2.4407,4.5571,8.5508,0.2567,-0.1675,-0.0284
1764313266190,2.4407,4.5571,8.5508,0.4223,-0.4155,-0.0675
1764313266200,2.4963,4.4327,8.817,0.4223,-0.4155,-0.0675
1764313266210,2.4963,4.4327,8.817,0.5368,-0.3891,-0.0602
1764313266220,2.5711,4.3854,8.5819,0.5368,-0.3891,-0.0602
1764313266230,2.5711,4.3854,8.5819,0.5368,-0.3891,-0.0602
1764313266240,2.5184,4.4841,8.0716,0.4581,-0.1089,0.002
1764313266250,2.5184,4.4841,8.0716,0.4581,-0.1089,0.002
1764313266260,2.5184,4.4841,8.0716,0.4137,-0.128,0.0331
1764313266270,2.2146,4.3513,7.8933,0.4137,-0.128,0.0331
1764313266280,2.2146,4.3513,7.8933,0.5469,-0.4734,0.0948
1764313266290,2.2959,4.4423,7.852,0.5469,-0.4734,0.0948
1764313266300,2.2959,4.4423,7.852,0.6721,-0.7346,0.1523
1764313266310,2.656,4.6068,7.7228,0.6721,-0.7346,0.1523
1764313266320,2.656,4.6068,7.7228,0.7457,-0.8978,0.1768
1764313266330,2.9779,4.8096,7.6271,0.7457,-0.8978,0.1768
1764313266340,2.9779,4.8096,7.6271,0.8129,-0.9206,0.1669
1764313266350,3.2195,4.9406,7.2485,0.8129,-0.9206,0.1669
1764313266360,3.2195,4.9406,7.2485,0.8129,-0.9206,0.1669
1764313266370,3.2195,4.9406,7.2485,0.754,-0.6868,0.1483
1764313266380,3.1842,4.9274,6.5767,0.754,-0.6868,0.1483
1764313266390,3.1842,4.9274,6.5767,0.4381,-0.0987,0.2062
1764313266400,3.35,4.8371,6.816,0.4381,-0.0987,0.2062
1764313266410,3.35,4.8371,6.816,-0.3262,1.8809,0.4423
1764313266420,1.3848,4.9448,7.3555,-0.3262,1.8809,0.4423
1764313266430,1.3848,4.9448,7.3555,-1.905,6.9555,1.3109
1764313266440,3.3727,5.5735,2.7805,-1.905,6.9555,1.3109
1764313266450,3.3727,5.5735,2.7805,-5.4787,12.9981,1.5572
1764313266460,6.5342,5.4281,0.2536,-5.4787,12.9981,1.5572
1764313266470,6.5342,5.4281,0.2536,-8.9475,16.9758,0.9624
1764313266480,6.6951,7.6176,0.3458,-8.9475,16.9758,0.9624
1764313266490,6.6951,7.6176,0.3458,-8.7151,15.5173,-0.6608
1764313266500,3.9368,7.2754,-2.8588,-8.7151,15.5173,-0.6608
1764313266510,3.9368,7.2754,-2.8588,-8.7151,15.5173,-0.6608
1764313266520,3.9368,7.2754,-2.8588,-4.5407,7.4157,-3.8422
1764313266530,-4.1145,-0.7083,-8.0704,-4.5407,7.4157,-3.8422
1764313266540,-4.1145,-0.7083,-8.0704,-1.4855,-2.7101,-6.043
1764313266550,-10.5942,-12.8716,3.5043,-1.4855,-2.7101,-6.043
1764313266560,-10.5942,-12.8716,3.5043,-1.8508,-5.5285,-4.72
1764313266570,-11.9049,-15.0778,17.4993,-1.8508,-5.5285,-4.72
1764313266580,-11.9049,-15.0778,17.4993,-2.4992,-2.1712,-2.6133
1764313266590,-10.3525,-11.7631,17.1153,-2.4992,-2.1712,-2.6133
1764313266600,-10.3525,-11.7631,17.1153,-2.1551,-0.3784,-1.6754
1764313266610,-10.0104,-10.2281,15.8231,-2.1551,-0.3784,-1.6754
1764313266620,-10.0104,-10.2281,15.8231,-2.1551,-0.3784,-1.6754
1764313266630,-10.0104,-10.2281,15.8231,-0.65,-1.1849,-1.1573
1764313266640,-9.4869,-8.2875,15.4002,-0.65,-1.1849,-1.1573
1764313266650,-9.4869,-8.2875,15.4002,0.8806,-2.0253,-0.5799
1764313266660,-8.388,-7.0427,13.8,0.8806,-2.0253,-0.5799
1764313266670,-8.388,-7.0427,13.8,1.3964,-1.7347,0.192
1764313266680,-6.7095,-5.6853,11.677,1.3964,-1.7347,0.192
1764313266690,-6.7095,-5.6853,11.677,1.1919,-0.8787,0.7873
1764313266700,-4.602,-4.3214,9.5952,1.1919,-0.8787,0.7873
1764313266710,-4.602,-4.3214,9.5952,0.9387,-0.4762,0.942
1764313266720,-3.0275,-3.2716,8.3043,0.9387,-0.4762,0.942
1764313266730,-3.0275,-3.2716,8.3043,0.9229,-0.7341,0.7252
1764313266740,-3.0437,-3.323,8.802,0.9229,-0.7341,0.7252
1764313266750,-3.0437,-3.323,8.802,1.2756,-1.065,0.5954
1764313266760,-3.5492,-3.6359,8.7864,1.2756,-1.065,0.5954
1764313266770,-3.5492,-3.6359,8.7864,1.2756,-1.065,0.5954
1764313266780,-3.5492,-3.6359,8.7864,1.4455,-0.9491,0.7132
1764313266790,-3.8895,-3.6401,8.0124,1.4455,-0.9491,0.7132
1764313266800,-3.8895,-3.6401,8.0124,1.3233,-0.7288,0.9238
1764313266810,-3.0754,-3.216,7.5529,1.3233,-0.7288,0.9238
1764313266820,-3.0754,-3.216,7.5529,1.4113,-1.2011,0.8932
1764313266830,-2.6542,-2.7021,8.8522,1.4113,-1.2011,0.8932
1764313266840,-2.6542,-2.7021,8.8522,2.1702,-2.2058,0.7074
1764313266850,-2.7936,-2.4323,9.5486,2.1702,-2.2058,0.7074
1764313266860,-2.7936,-2.4323,9.5486,3.1846,-3.516,0.5722
1764313266870,-2.4742,-2.5011,10.8126,3.1846,-3.516,0.5722
1764313266880,-2.4742,-2.5011,10.8126,4.3449,-4.6264,0.5188
1764313266890,-1.2299,-1.6211,10.5685,4.3449,-4.6264,0.5188
1764313266900,-1.2299,-1.6211,10.5685,4.3449,-4.6264,0.5188
1764313266910,-0.2183,-0.1992,9.2518,5.1212,-5.2032,0.4151
1764313266920,-0.2183,-0.1992,9.2518,5.1212,-5.2032,0.4151
1764313266930,-0.2183,-0.1992,9.2518,4.5396,-4.1663,0.5315
1764313266940,0.3858,0.7639,7.8497,4.5396,-4.1663,0.5315
1764313266950,0.3858,0.7639,7.8497,2.6704,-2.073,0.8686
1764313266960,1.3992,1.806,7.395,2.6704,-2.073,0.8686
1764313266970,1.3992,1.806,7.395,1.6457,-1.3919,1.0166
1764313266980,2.811,3.1693,8.1374,1.6457,-1.3919,1.0166
1764313266990,2.811,3.1693,8.1374,1.972,-1.803,0.6854
1764313267000,3.4409,4.0086,7.6158,1.972,-1.803,0.6854
1764313267010,3.4409,4.0086,7.6158,1.972,-1.803,0.6854
1764313267020,2.7709,3.5527,6.7681,2.2492,-2.0795,0.2402
1764313267030,2.7709,3.5527,6.7681,2.2492,-2.0795,0.2402
1764313267040,2.6261,3.323,6.6156,1.7419,-1.5417,0.2966
1764313267050,2.6261,3.323,6.6156,1.7419,-1.5417,0.2966
1764313267060,2.6261,3.323,6.6156,0.7882,-0.4126,0.5676
1764313267070,2.9946,3.7125,6.5432,0.7882,-0.4126,0.5676
1764313267080,2.9946,3.7125,6.5432,0.2301,0.1179,0.7184
1764313267090,3.8919,4.3035,6.4606,0.2301,0.1179,0.7184
1764313267100,3.8919,4.3035,6.4606,0.129,0.0082,0.575
1764313267110,4.3023,4.3992,6.8279,0.129,0.0082,0.575
1764313267120,4.3023,4.3992,6.8279,0.0673,-0.0144,0.42
1764313267130,4.13,4.084,7.5745,0.0673,-0.0144,0.42
1764313267140,4.13,4.084,7.5745,-0.0719,0.3302,0.3906
1764313267150,3.5204,3.5701,8.132,-0.0719,0.3302,0.3906
1764313267160,3.5204,3.5701,8.132,-0.0719,0.3302,0.3906
1764313267170,3.591,3.6359,7.8754,-0.1361,0.6119,0.5021
1764313267180,3.591,3.6359,7.8754,-0.1361,0.6119,0.5021
1764313267190,3.591,3.6359,7.8754,-0.1202,0.4218,0.5151
1764313267200,3.9589,3.8363,8.1099,-0.1202,0.4218,0.5151
1764313267210,3.9589,3.8363,8.1099,-0.1327,0.2398,0.4253
1764313267220,4.2592,3.8495,8.8786,-0.1327,0.2398,0.4253
1764313267230,4.2592,3.8495,8.8786,-0.1263,0.2251,0.2973
1764313267240,3.8249,3.5157,9.6467,-0.1263,0.2251,0.2973
1764313267250,3.8249,3.5157,9.6467,0.0354,0.2401,0.2989
1764313267260,3.3996,3.4391,9.4002,0.0354,0.2401,0.2989
1764313267270,3.3996,3.4391,9.4002,0.2042,0.1414,0.343
1764313267280,3.5767,3.7029,9.0891,0.2042,0.1414,0.343
1764313267290,3.5767,3.7029,9.0891,0.2744,0.0528,0.3487
1764313267300,3.7579,3.923,8.9109,0.2744,0.0528,0.3487
1764313267310,3.7579,3.923,8.9109,0.2744,0.0528,0.3487
1764313267320,3.5402,3.4564,8.5585,0.2741,0.0951,0.3198
1764313267330,3.5402,3.4564,8.5585,0.2741,0.0951,0.3198
1764313267340,3.5402,3.4564,8.5585,0.2549,0.2628,0.3406
1764313267350,3.4493,3.9829,8.1135,0.2549,0.2628,0.3406
1764313267360,3.4493,3.9829,8.1135,0.1723,0.2135,0.3728
1764313267370,3.7741,3.7645,8.1278,0.1723,0.2135,0.3728
1764313267380,3.7741,3.7645,8.1278,0.2553,0.0206,0.3018
1764313267390,3.9912,3.8859,8.1691,0.2553,0.0206,0.3018
1764313267400,3.9912,3.8859,8.1691,0.3514,-0.048,0.2049
1764313267410,4.0792,4.1384,7.8838,0.3514,-0.048,0.2049
1764313267420,4.0792,4.1384,7.8838,0.2585,-0.0148,0.1087
1764313267430,3.8028,3.9817,8.0925,0.2585,-0.0148,0.1087
1764313267440,3.8028,3.9817,8.0925,0.2585,-0.0148,0.1087
1764313267450,3.4953,3.7059,8.1721,0.1035,0.1272,0.1083
1764313267460,3.4953,3.7059,8.1721,0.1035,0.1272,0.1083
1764313267470,3.4953,3.7059,8.1721,0.04,0.1915,0.1483
1764313267480,3.6975,3.9733,8.3922,0.04,0.1915,0.1483
1764313267490,3.6975,3.9733,8.3922,0.0673,0.1219,0.0904
1764313267500,3.859,3.9159,8.6219,0.0673,0.1219,0.0904
1764313267510,3.859,3.9159,8.6219,0.1932,0.0809,0.0073
1764313267520,3.39,3.8889,8.0447,0.1932,0.0809,0.0073
1764313267530,3.39,3.8889,8.0447,0.1906,-0.0148,-0.002
1764313267540,3.5521,3.9081,8.5137,0.1906,-0.0148,-0.002
1764313267550,3.5521,3.9081,8.5137,0.2159,-0.0947,-0.0379
1764313267560,3.9607,3.9386,8.8199,0.2159,-0.0947,-0.0379
1764313267570,3.9607,3.9386,8.8199,0.2159,-0.0947,-0.0379
1764313267580,3.9607,3.9386,8.8199,0.2909,-0.0719,-0.1132
1764313267590,3.7842,4.1683,8.333,0.2909,-0.0719,-0.1132
1764313267600,3.7842,4.1683,8.333,0.2294,0.0002,-0.1539
1764313267610,3.1789,4.1635,8.3061,0.2294,0.0002,-0.1539
1764313267620,3.1789,4.1635,8.3061,0.1352,0.018,-0.0933
1764313267630,3.128,3.8686,8.9456,0.1352,0.018,-0.0933
1764313267640,3.128,3.8686,8.9456,0.2868,-0.1191,-0.0516
1764313267650,3.5617,4.0355,9.1519,0.2868,-0.1191,-0.0516
1764313267660,3.5617,4.0355,9.1519,0.5739,-0.3309,-0.1222
1764313267670,3.792,4.2132,8.8325,0.5739,-0.3309,-0.1222
1764313267680,3.792,4.2132,8.8325,0.6471,-0.321,-0.188
1764313267690,3.6532,4.471,8.1739,0.6471,-0.321,-0.188
1764313267700,3.6532,4.471,8.1739,0.6,-0.3931,-0.2424
1764313267710,3.6718,4.5685,8.0722,0.6,-0.3931,-0.2424
1764313267720,3.6718,4.5685,8.0722,0.6,-0.3931,-0.2424
1764313267730,3.6718,4.5685,8.0722,0.644,-0.4979,-0.3042
1764313267740,3.3009,4.459,7.7204,0.644,-0.4979,-0.3042
1764313267750,3.3009,4.459,7.7204,0.7254,-0.6755,-0.3233
1764313267760,3.2411,4.5476,7.2706,0.7254,-0.6755,-0.3233
1764313267770,3.2411,4.5476,7.2706,0.8439,-1.011,-0.3274
1764313267780,3.6754,4.9424,6.6347,0.8439,-1.011,-0.3274
1764313267790,3.6754,4.9424,6.6347,0.8887,-1.255,-0.4203
1764313267800,3.3087,5.001,6.2231,0.8887,-1.255,-0.4203
1764313267810,3.3087,5.001,6.2231,0.7442,-1.0082,-0.3045
1764313267820,3.457,5.1745,5.671,0.7442,-1.0082,-0.3045
1764313267830,3.457,5.1745,5.671,0.7442,-1.0082,-0.3045
1764313267840,3.8064,4.9807,6.6628,0.0991,0.0544,-0.0487
1764313267850,3.8064,4.9807,6.6628,0.0991,0.0544,-0.0487
1764313267860,5.604,6.1131,5.3246,-1.2633,3.5632,0.4019
1764313267870,5.604,6.1131,5.3246,-1.2633,3.5632,0.4019
1764313267880,5.604,6.1131,5.3246,-4.2557,9.3875,0.6365
1764313267890,8.1846,8.2295,2.8361,-4.2557,9.3875,0.6365
1764313267900,8.1846,8.2295,2.8361,-8.453,16.1099,0.2895
1764313267910,10.3286,7.7085,1.9131,-8.453,16.1099,0.2895
1764313267920,10.3286,7.7085,1.9131,-10.9691,20.2696,-1.2008
1764313267930,3.8034,4.1145,2.5442,-10.9691,20.2696,-1.2008
1764313267940,3.8034,4.1145,2.5442,-7.489,15.6522,-2.5417
1764313267950,-8.7069,-2.5382,-1.657,-7.489,15.6522,-2.5417
1764313267960,-8.7069,-2.5382,-1.657,0.0652,2.5707,-3.5221
1764313267970,-16.2521,-6.987,-0.5922,0.0652,2.5707,-3.5221
1764313267980,-16.2521,-6.987,-0.5922,0.0652,2.5707,-3.5221
1764313267990,-16.2521,-6.987,-0.5922,3.6024,-5.6887,-2.6157
1764313268000,-12.4265,-7.9412,5.4712,3.6024,-5.6887,-2.6157
1764313268010,-12.4265,-7.9412,5.4712,1.4294,-3.9053,-1.0905
1764313268020,-7.4178,-4.7952,8.6333,1.4294,-3.9053,-1.0905
1764313268030,-7.4178,-4.7952,8.6333,-1.3938,0.0547,-0.9326
1764313268040,-7.9382,-4.1061,10.1342,-1.3938,0.0547,-0.9326
1764313268050,-7.9382,-4.1061,10.1342,-1.337,0.3876,-1.1391
1764313268060,-10.4279,-4.8203,11.0566,-1.337,0.3876,-1.1391
1764313268070,-10.4279,-4.8203,11.0566,0.65,-1.7645,-1.0336
1764313268080,-10.1037,-4.3854,10.7282,0.65,-1.7645,-1.0336
1764313268090,-10.1037,-4.3854,10.7282,2.2663,-3.5453,-0.7787
1764313268100,-8.3797,-3.1669,8.9695,2.2663,-3.5453,-0.7787
1764313268110,-8.3797,-3.1669,8.9695,2.8083,-4.6746,-0.608
1764313268120,-6.7681,-2.8445,9.393,2.8083,-4.6746,-0.608
1764313268130,-6.7681,-2.8445,9.393,2.8083,-4.6746,-0.608
1764313268140,-6.7681,-2.8445,9.393,3.1027,-5.682,-0.5221
1764313268150,-4.733,-2.7625,12.2578,3.1027,-5.682,-0.5221
1764313268160,-4.733,-2.7625,12.2578,3.9415,-6.3545,-0.5154
1764313268170,-2.75,-1.8999,14.4239,3.9415,-6.3545,-0.5154
1764313268180,-2.75,-1.8999,14.4239,4.3269,-5.1282,-0.4191
1764313268190,-2.0512,-1.2616,12.3165,4.3269,-5.1282,-0.4191
1764313268200,-2.0512,-1.2616,12.3165,3.3057,-2.9653,-0.0341
1764313268210,-1.1821,0.3027,9.1424,3.3057,-2.9653,-0.0341
1764313268220,-1.1821,0.3027,9.1424,2.4644,-2.1597,0.1321
1764313268230,0.1178,2.3701,7.4782,2.4644,-2.1597,0.1321
1764313268240,0.1178,2.3701,7.4782,2.4644,-2.1597,0.1321
1764313268250,1.0277,3.399,6.5916,2.5739,-2.7063,-0.1914
1764313268260,1.0277,3.399,6.5916,2.5739,-2.7063,-0.1914
1764313268270,1.0277,3.399,6.5916,2.6276,-3.3985,-0.6487
1764313268280,1.0881,2.7984,7.1767,2.6276,-3.3985,-0.6487
1764313268290,1.0881,2.7984,7.1767,2.2371,-3.2829,-0.7236
1764313268300,1.3848,2.7039,7.9394,2.2371,-3.2829,-0.7236
1764313268310,1.3848,2.7039,7.9394,1.5951,-2.2254,-0.5362
1764313268320,1.9442,3.0377,7.9837,1.5951,-2.2254,-0.5362
1764313268330,1.9442,3.0377,7.9837,0.7579,-0.8854,-0.3228
1764313268340,2.4251,3.2985,7.4166,0.7579,-0.8854,-0.3228
1764313268350,2.4251,3.2985,7.4166,0.2347,-0.3932,-0.2815
1764313268360,2.1362,3.5623,7.5912,0.2347,-0.3932,-0.2815
1764313268370,2.1362,3.5623,7.5912,0.4901,-0.9117,-0.3554
1764313268380,1.7737,3.5689,8.1512,0.4901,-0.9117,-0.3554
1764313268390,1.7737,3.5689,8.1512,0.4901,-0.9117,-0.3554
1764313268400,1.5458,3.411,8.4479,0.8801,-1.2704,-0.3042
1764313268410,1.5458,3.411,8.4479,0.8801,-1.2704,-0.3042
1764313268420,1.5458,3.411,8.4479,0.7039,-0.6807,-0.0206
1764313268430,2.2887,3.7364,8.0913,0.7039,-0.6807,-0.0206
1764313268440,2.2887,3.7364,8.0913,0.1003,0.2886,0.2065
1764313268450,3.4935,4.8156,7.5009,0.1003,0.2886,0.2065
1764313268460,3.4935,4.8156,7.5009,-0.2227,0.4079,0.0554
1764313268470,3.2369,5.2798,7.1163,-0.2227,0.4079,0.0554
1764313268480,3.2369,5.2798,7.1163,-0.0411,-0.3271,-0.2715
1764313268490,2.5615,4.8754,7.121,-0.0411,-0.3271,-0.2715
1764313268500,2.5615,4.8754,7.121,0.1219,-0.8729,-0.3844
1764313268510,2.3916,4.3819,7.7898,0.1219,-0.8729,-0.3844
1764313268520,2.3916,4.3819,7.7898,0.1219,-0.8729,-0.3844
1764313268530,2.3916,4.3819,7.7898,-0.0389,-0.5447,-0.3265
1764313268540,2.2839,3.7693,8.3587,-0.0389,-0.5447,-0.3265
1764313268550,2.2839,3.7693,8.3587,-0.2825,0.0026,-0.0748
1764313268560,2.7009,4.1934,8.2792,-0.2825,0.0026,-0.0748
1764313268570,2.7009,4.1934,8.2792,-0.4487,0.0683,0.0637
1764313268580,3.6024,4.465,8.4945,-0.4487,0.0683,0.0637
1764313268590,3.6024,4.465,8.4945,-0.4337,0.0344,-0.1067
1764313268600,3.7029,4.5894,8.7434,-0.4337,0.0344,-0.1067
1764313268610,3.7029,4.5894,8.7434,-0.3412,-0.1628,-0.3612
1764313268620,3.1507,3.9165,9.7741,-0.3412,-0.1628,-0.3612
1764313268630,3.1507,3.9165,9.7741,-0.1139,-0.1472,-0.3987
1764313268640,2.6112,3.6084,9.6796,-0.1139,-0.1472,-0.3987
1764313268650,2.6112,3.6084,9.6796,-0.1139,-0.1472,-0.3987
1764313268660,2.5394,3.9637,9.0413,0.0603,-0.026,-0.3199
1764313268670,2.5394,3.9637,9.0413,0.0603,-0.026,-0.3199
1764313268680,2.5394,3.9637,9.0413,0.0762,0.0021,-0.2741
1764313268690,2.4377,4.0068,8.2648,0.0762,0.0021,-0.2741
1764313268700,2.4377,4.0068,8.2648,0.0367,-0.0304,-0.2744
1764313268710,2.2828,4.2048,7.6887,0.0367,-0.0304,-0.2744
1764313268720,2.2828,4.2048,7.6887,-0.0745,-0.1562,-0.2822
1764313268730,2.2552,4.0265,7.8694,-0.0745,-0.1562,-0.2822
1764313268740,2.2552,4.0265,7.8694,-0.1513,-0.1594,-0.2529
1764313268750,2.2026,4.0403,7.6361,-0.1513,-0.1594,-0.2529
1764313268760,2.2026,4.0403,7.6361,-0.2561,-0.1379,-0.2051
1764313268770,2.3623,4.0469,7.9382,-0.2561,-0.1379,-0.2051
1764313268780,2.3623,4.0469,7.9382,-0.2561,-0.1379,-0.2051
1764313268790,2.3623,4.0469,7.9382,-0.4464,-0.0864,-0.1752
1764313268800,2.7392,3.9176,8.7661,-0.4464,-0.0864,-0.1752
1764313268810,2.7392,3.9176,8.7661,-0.4846,-0.0418,-0.1933
1764313268820,2.9785,3.7376,10.2526,-0.4846,-0.0418,-0.1933
1764313268830,2.9785,3.7376,10.2526,-0.2402,0.0217,-0.2505
1764313268840,2.4024,3.2686,10.9723,-0.2402,0.0217,-0.2505
1764313268850,2.4024,3.2686,10.9723,0.1987,0.1671,-0.199
1764313268860,1.7719,3.2399,10.2616,0.1987,0.1671,-0.199
1764313268870,1.7719,3.2399,10.2616,0.4798,0.0987,-0.0438
1764313268880,2.0405,3.8177,8.9186,0.4798,0.0987,-0.0438
1764313268890,2.0405,3.8177,8.9186,0.5114,-0.0736,0.0086
1764313268900,2.6112,4.8162,8.0985,0.5114,-0.0736,0.0086
1764313268910,2.6112,4.8162,8.0985,0.3132,-0.1243,-0.0941
1764313268920,2.5334,4.8257,8.1212,0.3132,-0.1243,-0.0941
1764313268930,2.5334,4.8257,8.1212,0.3132,-0.1243,-0.0941
1764313268940,2.5334,4.8257,8.1212,0.1516,-0.0609,-0.171
1764313268950,2.1643,4.3178,8.2744,0.1516,-0.0609,-0.171
1764313268960,2.1643,4.3178,8.2744,0.1168,0.0116,-0.1185
1764313268970,2.056,4.1653,7.8879,0.1168,0.0116,-0.1185
1764313268980,2.056,4.1653,7.8879,0.016,0.0333,-0.0504
1764313268990,2.2666,4.0505,8.2074,0.016,0.0333,-0.0504
1764313269000,2.2666,4.0505,8.2074,-0.0557,0.0182,-0.0224
1764313269010,2.7153,4.1605,8.7517,-0.0557,0.0182,-0.0224
1764313269020,2.7153,4.1605,8.7517,0.0334,-0.0238,-0.0924
1764313269030,2.5155,4.0457,9.0293,0.0334,-0.0238,-0.0924
1764313269040,2.5155,4.0457,9.0293,0.1642,-0.0014,-0.1002
1764313269050,2.0722,3.9003,8.8983,0.1642,-0.0014,-0.1002
1764313269060,2.0722,3.9003,8.8983,0.1642,-0.0014,-0.1002
1764313269070,2.1057,4.2497,8.683,0.1662,0.0602,0.0118
1764313269080,2.1057,4.2497,8.683,0.1662,0.0602,0.0118
1764313269090,2.1057,4.2497,8.683,0.1478,0.0125,0.0435
1764313269100,2.2911,4.3837,8.7691,0.1478,0.0125,0.0435
1764313269110,2.2911,4.3837,8.7691,0.2973,-0.2637,-0.0047
1764313269120,2.205,4.2796,8.9504,0.2973,-0.2637,-0.0047
1764313269130,2.205,4.2796,8.9504,0.5803,-0.5096,-0.0667
1764313269140,1.654,4.2748,8.6321,0.5803,-0.5096,-0.0667
1764313269150,1.654,4.2748,8.6321,0.8215,-0.8158,0.0176
1764313269160,1.4662,4.0421,8.3737,0.8215,-0.8158,0.0176
1764313269170,1.4662,4.0421,8.3737,1.06,-1.2837,0.1952
1764313269180,1.3956,3.6885,8.6267,1.06,-1.2837,0.1952
1764313269190,1.3956,3.6885,8.6267,1.06,-1.2837,0.1952
1764313269200,2.3605,4.0074,8.8116,1.3896,-1.2688,0.431
1764313269210,2.3605,4.0074,8.8116,1.3896,-1.2688,0.431
1764313269220,2.3605,4.0074,8.8116,1.0956,0.4038,0.7075
1764313269230,5.3755,5.2702,9.1657,1.0956,0.4038,0.7075
1764313269240,5.3755,5.2702,9.1657,-0.9464,5.7391,0.7753
1764313269250,9.9529,8.388,5.2134,-0.9464,5.7391,0.7753
1764313269260,9.9529,8.388,5.2134,-5.1723,12.5493,0.272
1764313269270,11.9031,10.0247,2.4179,-5.1723,12.5493,0.272
1764313269280,11.9031,10.0247,2.4179,-8.406,17.2824,-0.9923
1764313269290,7.1468,8.2325,-0.2249,-8.406,17.2824,-0.9923
1764313269300,7.1468,8.2325,-0.2249,-7.949,16.4118,-2.4007
1764313269310,-3.5958,1.9956,-3.2303,-7.949,16.4118,-2.4007
1764313269320,-3.5958,1.9956,-3.2303,-4.4708,9.3925,-2.8857
1764313269330,-12.5539,-2.9127,-3.5079,-4.4708,9.3925,-2.8857
1764313269340,-12.5539,-2.9127,-3.5079,-4.4708,9.3925,-2.8857
1764313269350,-15.8997,-7.276,2.5729,-1.0241,0.8317,-2.7093
1764313269360,-15.8997,-7.276,2.5729,-1.0241,0.8317,-2.7093
1764313269370,-15.8997,-7.276,2.5729,0.3702,-3.1544,-1.4678
1764313269380,-13.1797,-7.4895,9.3685,0.3702,-3.1544,-1.4678
1764313269390,-13.1797,-7.4895,9.3685,-0.017,-2.0746,-0.2097
1764313269400,-10.6098,-4.468,9.3787,-0.017,-2.0746,-0.2097
1764313269410,-10.6098,-4.468,9.3787,-0.5754,-0.8493,0.2292
1764313269420,-9.7454,-2.8588,8.4927,-0.5754,-0.8493,0.2292
1764313269430,-9.7454,-2.8588,8.4927,-0.1037,-1.5721,0.2873
1764313269440,-9.2231,-1.791,8.0668,-0.1037,-1.5721,0.2873
1764313269450,-9.2231,-1.791,8.0668,0.8908,-3.1205,0.2482
1764313269460,-8.1655,-1.3388,7.3298,0.8908,-3.1205,0.2482
1764313269470,-8.1655,-1.3388,7.3298,0.8908,-3.1205,0.2482
1764313269480,-8.1655,-1.3388,7.3298,1.5782,-4.5315,0.275
1764313269490,-6.6054,-1.0893,7.7779,1.5782,-4.5315,0.275
1764313269500,-6.6054,-1.0893,7.7779,2.0171,-5.4202,0.3328
1764313269510,-4.4124,-0.7017,9.8931,2.0171,-5.4202,0.3328
1764313269520,-4.4124,-0.7017,9.8931,2.0904,-5.07,0.3054
1764313269530,-3.2752,-0.6203,11.2786,2.0904,-5.07,0.3054
1764313269540,-3.2752,-0.6203,11.2786,1.8986,-4.2623,0.2575
1764313269550,-3.4971,-0.9511,11.744,1.8986,-4.2623,0.2575
1764313269560,-3.4971,-0.9511,11.744,2.4102,-4.5042,0.3604
1764313269570,-3.1029,-0.6048,11.5131,2.4102,-4.5042,0.3604
1764313269580,-3.1029,-0.6048,11.5131,3.5914,-5.5399,0.4349
1764313269590,-1.2538,0.7789,10.9322,3.5914,-5.5399,0.4349
1764313269600,-1.2538,0.7789,10.9322,3.5914,-5.5399,0.4349
1764313269610,0.6443,1.8413,9.9751,4.1152,-5.5285,0.4733
1764313269620,0.6443,1.8413,9.9751,4.1152,-5.5285,0.4733
1764313269630,0.6443,1.8413,9.9751,3.5548,-4.1782,0.545
1764313269640,1.2329,2.4389,9.0556,3.5548,-4.1782,0.545
1764313269650,1.2329,2.4389,9.0556,2.6935,-2.3961,0.7547
1764313269660,1.8491,3.0754,7.3669,2.6935,-2.3961,0.7547
1764313269670,1.8491,3.0754,7.3669,1.6872,-0.8326,0.9762
1764313269680,2.851,4.0505,5.7506,1.6872,-0.8326,0.9762
1764313269690,2.851,4.0505,5.7506,0.628,0.2372,0.9566
1764313269700,3.417,4.4668,5.3599,0.628,0.2372,0.9566
1764313269710,3.417,4.4668,5.3599,-0.078,0.5264,0.7648
1764313269720,3.4714,4.4189,6.6413,-0.078,0.5264,0.7648
1764313269730,3.4714,4.4189,6.6413,-0.078,0.5264,0.7648
1764313269740,3.4714,4.4189,6.6413,-0.2214,0.5023,0.551
1764313269750,2.5825,3.6449,7.4859,-0.2214,0.5023,0.551
1764313269760,2.5825,3.6449,7.4859,-0.0929,0.214,0.5322
1764313269770,2.4329,3.3661,7.858,-0.0929,0.214,0.5322
1764313269780,2.4329,3.3661,7.858,-0.0032,0.0333,0.5962
1764313269790,3.2142,3.6168,8.2726,-0.0032,0.0333,0.5962
1764313269800,3.2142,3.6168,8.2726,-0.1063,0.1677,0.5652
1764313269810,2.997,3.6497,8.7272,-0.1063,0.1677,0.5652
1764313269820,2.997,3.6497,8.7272,-0.217,0.4187,0.5762
1764313269830,2.5328,3.0329,8.9617,-0.217,0.4187,0.5762
1764313269840,2.5328,3.0329,8.9617,-0.2187,0.4885,0.7066
1764313269850,2.8271,3.8668,8.8199,-0.2187,0.4885,0.7066
1764313269860,2.8271,3.8668,8.8199,-0.2566,0.2825,0.7262
1764313269870,3.5557,3.8094,9.7771,-0.2566,0.2825,0.7262
1764313269880,3.5557,3.8094,9.7771,-0.2566,0.2825,0.7262
1764313269890,3.5557,3.8094,9.7771,-0.1801,0.3859,0.5776
1764313269900,3.3278,3.5557,9.9703,-0.1801,0.3859,0.5776
1764313269910,3.3278,3.5557,9.9703,-0.0154,0.3847,0.4493
1764313269920,2.7673,3.3978,9.7196,-0.0154,0.3847,0.4493
1764313269930,2.7673,3.3978,9.7196,0.1845,0.2005,0.407
1764313269940,2.6435,3.2877,9.3781,0.1845,0.2005,0.407
1764313269950,2.6435,3.2877,9.3781,0.3239,0.0229,0.3914
1764313269960,2.5663,3.3248,9.2734,0.3239,0.0229,0.3914
1764313269970,2.5663,3.3248,9.2734,0.3563,-0.0015,0.4009
1764313269980,2.543,3.1777,9.1693,0.3563,-0.0015,0.4009
1764313269990,2.543,3.1777,9.1693,0.3563,-0.0015,0.4009
1764313270000,2.2427,3.332,8.1434,0.3641,0.1688,0.4381
1764313270010,2.2427,3.332,8.1434,0.3641,0.1688,0.4381
1764313270020,2.2271,3.4265,7.3813,0.3013,0.1475,0.4798
1764313270030,2.2271,3.4265,7.3813,0.3013,0.1475,0.4798
1764313270040,2.2271,3.4265,7.3813,0.1341,-0.0125,0.4928
1764313270050,3.052,3.664,7.8514,0.1341,-0.0125,0.4928
1764313270060,3.052,3.664,7.8514,-0.0137,-0.0209,0.399
1764313270070,3.7759,3.7059,8.7637,-0.0137,-0.0209,0.399
1764313270080,3.7759,3.7059,8.7637,-0.0638,0.1399,0.2162
1764313270090,3.0377,3.3966,9.5504,-0.0638,0.1399,0.2162
1764313270100,3.0377,3.3966,9.5504,0.0515,0.2636,0.2121
1764313270110,2.5017,3.1693,9.6162,0.0515,0.2636,0.2121
1764313270120,2.5017,3.1693,9.6162,0.2708,0.1286,0.3083
1764313270130,3.052,3.7789,9.3051,0.2708,0.1286,0.3083
1764313270140,3.052,3.7789,9.3051,0.2708,0.1286,0.3083
1764313270150,3.4421,4.1264,8.884,0.4476,-0.071,0.2253
1764313270160,3.4421,4.1264,8.884,0.4476,-0.071,0.2253
1764313270170,3.4421,4.1264,8.884,0.4847,-0.2068,0.0754
1764313270180,3.2991,4.057,8.793,0.4847,-0.2068,0.0754
1764313270190,3.2991,4.057,8.793,0.4004,-0.1194,0.0179
1764313270200,3.0849,3.8524,8.8983,0.4004,-0.1194,0.0179
1764313270210,3.0849,3.8524,8.8983,0.2724,0.1333,0.0331
1764313270220,3.3051,3.9876,9.134,0.2724,0.1333,0.0331
1764313270230,3.3051,3.9876,9.134,0.2798,0.2103,-0.0318
1764313270240,3.1986,3.9033,8.7709,0.2798,0.2103,-0.0318
1764313270250,3.1986,3.9033,8.7709,0.4273,-0.0345,-0.1336
1764313270260,2.8905,4.1091,8.3127,0.4273,-0.0345,-0.1336
1764313270270,2.8905,4.1091,8.3127,0.5644,-0.3826,-0.2077
1764313270280,2.5567,4.0307,8.2696,0.5644,-0.3826,-0.2077
1764313270290,2.5567,4.0307,8.2696,0.5644,-0.3826,-0.2077
1764313270300,2.5567,4.0307,8.2696,0.5999,-0.5304,-0.1637
1764313270310,2.6716,4.1856,8.3569,0.5999,-0.5304,-0.1637
1764313270320,2.6716,4.1856,8.3569,0.5597,-0.4771,-0.109
1764313270330,2.9228,4.3549,8.083,0.5597,-0.4771,-0.109
1764313270340,2.9228,4.3549,8.083,0.4789,-0.4206,-0.1257
1764313270350,2.9336,4.4632,7.8114,0.4789,-0.4206,-0.1257
1764313270360,2.9336,4.4632,7.8114,0.4974,-0.5849,-0.1857
1764313270370,2.8828,4.4686,7.7037,0.4974,-0.5849,-0.1857
1764313270380,2.8828,4.4686,7.7037,0.5976,-0.9142,-0.2566
1764313270390,3.2333,4.6546,7.8437,0.5976,-0.9142,-0.2566
1764313270400,3.2333,4.6546,7.8437,0.6875,-1.0522,-0.3612
1764313270410,3.012,4.5129,7.7671,0.6875,-1.0522,-0.3612
1764313270420,3.012,4.5129,7.7671,0.6875,-1.0522,-0.3612
1764313270430,1.7545,4.3549,6.9954,0.7393,-0.8534,-0.3978
1764313270440,1.7545,4.3549,6.9954,0.7393,-0.8534,-0.3978
1764313270450,1.7545,4.3549,6.9954,0.5649,-0.2899,-0.0745
1764313270460,2.4514,4.3771,6.8973,0.5649,-0.2899,-0.0745
1764313270470,2.4514,4.3771,6.8973,-0.4085,1.9122,0.3624
1764313270480,6.0891,5.1577,8.016,-0.4085,1.9122,0.3624
1764313270490,6.0891,5.1577,8.016,-2.9161,7.5029,0.485
1764313270500,10.5745,8.4963,5.7314,-2.9161,7.5029,0.485
1764313270510,10.5745,8.4963,5.7314,-2.9161,7.5029,0.485
1764313270520,12.0233,9.9398,1.5362,-7.2148,14.9292,-0.119
1764313270530,12.0233,9.9398,1.5362,-10.0519,19.5446,-1.7671
1764313270540,4.8802,5.132,-1.2281,-10.0519,19.5446,-1.7671
1764313270550,4.8802,5.132,-1.2281,-10.0519,19.5446,-1.7671
1764313270560,-8.8421,-2.3151,-4.5511,-7.7523,15.9817,-3.1311
1764313270570,-8.8421,-2.3151,-4.5511,-7.7523,15.9817,-3.1311
1764313270580,-8.8421,-2.3151,-4.5511,-1.7573,4.4834,-3.4761
1764313270590,-17.0118,-7.1833,-2.1428,-1.7573,4.4834,-3.4761
1764313270600,-17.0118,-7.1833,-2.1428,2.3246,-4.9979,-2.4577
1764313270610,-13.3077,-8.4114,7.7827,2.3246,-4.9979,-2.4577
1764313270620,-13.3077,-8.4114,7.7827,2.051,-4.9938,-0.9533
1764313270630,-8.3013,-5.1027,11.2786,2.051,-4.9938,-0.9533
1764313270640,-8.3013,-5.1027,11.2786,0.1706,-1.5192,-0.7066
1764313270650,-8.5125,-3.8429,10.6223,0.1706,-1.5192,-0.7066
1764313270660,-8.5125,-3.8429,10.6223,0.0441,-1.3091,-0.8031
1764313270670,-10.1348,-3.591,11.336,0.0441,-1.3091,-0.8031
1764313270680,-10.1348,-3.591,11.336,0.0441,-1.3091,-0.8031
1764313270690,-9.4211,-2.8839,11.2235,1.7875,-3.6272,-0.7135
1764313270700,-9.4211,-2.8839,11.2235,1.7875,-3.6272,-0.7135
1764313270710,-9.4211,-2.8839,11.2235,3.5594,-6.0001,-0.6125
1764313270720,-7.6905,-1.8999,9.6162,3.5594,-6.0001,-0.6125
1764313270730,-7.6905,-1.8999,9.6162,4.6843,-8.1146,-0.5139
1764313270740,-3.9051,-0.6335,9.9972,4.6843,-8.1146,-0.5139
1764313270750,-3.9051,-0.6335,9.9972,5.2067,-8.9591,-0.4988
1764313270760,-0.1932,1.0146,12.0455,5.2067,-8.9591,-0.4988
1764313270770,-0.1932,1.0146,12.0455,4.6362,-6.8736,-0.5286
1764313270780,1.1133,1.5876,11.2271,4.6362,-6.8736,-0.5286
1764313270790,1.1133,1.5876,11.2271,2.9445,-3.3946,-0.2918
1764313270800,1.6158,2.1787,9.4403,2.9445,-3.3946,-0.2918
1764313270810,1.6158,2.1787,9.4403,1.0936,-0.0382,-0.0121
1764313270820,1.6158,2.1787,9.4403,1.0936,-0.0382,-0.0121
1764313270830,2.1619,3.1089,6.9727,1.0936,-0.0382,-0.0121
1764313270840,2.1619,3.1089,6.9727,-0.3387,1.8964,-0.0223
1764313270850,1.946,3.39,6.0329,-0.3387,1.8964,-0.0223
1764313270860,1.946,3.39,6.0329,-0.6955,1.7807,-0.2876
1764313270870,1.1115,2.9276,6.8303,-0.6955,1.7807,-0.2876
1764313270880,1.1115,2.9276,6.8303,-0.0403,0.4071,-0.5461
1764313270890,0.4959,2.458,7.6283,-0.0403,0.4071,-0.5461
1764313270900,0.4959,2.458,7.6283,0.4447,-0.5252,-0.6409
1764313270910,0.0562,1.989,8.3402,0.4447,-0.5252,-0.6409
1764313270920,0.0562,1.989,8.3402,0.3337,-0.5512,-0.4895
1764313270930,0.1178,1.9298,8.9761,0.3337,-0.5512,-0.4895
1764313270940,0.1178,1.9298,8.9761,0.0582,-0.2344,-0.2732
1764313270950,0.7023,2.5974,9.0078,0.0582,-0.2344,-0.2732
1764313270960,0.7023,2.5974,9.0078,0.0582,-0.2344,-0.2732
1764313270970,1.1952,3.3033,9.2602,-0.0953,-0.1683,-0.2833
1764313270980,1.1952,3.3033,9.2602,-0.0953,-0.1683,-0.2833
1764313270990,1.1952,3.3033,9.2602,-0.0822,-0.3786,-0.4788
1764313271000,0.8584,3.1059,10.2305,-0.0822,-0.3786,-0.4788
1764313271010,0.8584,3.1059,10.2305,0.0759,-0.4673,-0.5698
1764313271020,0.5139,2.7529,10.6612,0.0759,-0.4673,-0.5698
1764313271030,0.5139,2.7529,10.6612,0.1706,-0.3357,-0.5136
1764313271040,0.4223,2.8104,10.2221,0.1706,-0.3357,-0.5136
1764313271050,0.4223,2.8104,10.2221,0.2036,-0.3314,-0.4435
1764313271060,0.9619,3.0138,9.6921,0.2036,-0.3314,-0.4435
1764313271070,0.9619,3.0138,9.6921,0.2282,-0.5018,-0.4838
1764313271080,0.4403,2.9707,9.2363,0.2282,-0.5018,-0.4838
1764313271090,0.4403,2.9707,9.2363,0.2282,-0.5018,-0.4838
1764313271100,-0.6784,2.0656,8.8403,0.3209,-0.6445,-0.4853
1764313271110,-0.6784,2.0656,8.8403,0.3209,-0.6445,-0.4853
1764313271120,-0.6784,2.0656,8.8403,0.3731,-0.6855,-0.0973
1764313271130,0.0371,2.9874,8.2092,0.3731,-0.6855,-0.0973
1764313271140,0.0371,2.9874,8.2092,0.1727,-0.9985,0.086
1764313271150,1.6068,3.055,9.4899,0.1727,-0.9985,0.086
1764313271160,1.6068,3.055,9.4899,0.148,-0.7136,-0.0296
1764313271170,2.2385,3.3942,9.8728,0.148,-0.7136,-0.0296
1764313271180,2.2385,3.3942,9.8728,0.1072,-0.2642,-0.2753
1764313271190,1.9161,3.3948,9.4708,0.1072,-0.2642,-0.2753
1764313271200,1.9161,3.3948,9.4708,-0.0003,-0.0055,-0.4267
1764313271210,1.2365,3.39,8.9695,-0.0003,-0.0055,-0.4267
1764313271220,1.2365,3.39,8.9695,-0.0134,-0.1145,-0.4965
1764313271230,0.8459,3.2961,8.9432,-0.0134,-0.1145,-0.4965
1764313271240,0.8459,3.2961,8.9432,-0.0134,-0.1145,-0.4965
1764313271250,0.8459,3.2961,8.9432,0.0571,-0.3143,-0.478
1764313271260,0.7944,3.0742,9.2058,0.0571,-0.3143,-0.478
1764313271270,0.7944,3.0742,9.2058,0.0733,-0.2787,-0.3839
1764313271280,1.2808,3.0838,9.3817,0.0733,-0.2787,-0.3839
1764313271290,1.2808,3.0838,9.3817,0.0266,-0.0822,-0.345
1764313271300,1.5422,3.1932,9.271,0.0266,-0.0822,-0.345
1764313271310,1.5422,3.1932,9.271,-0.0276,0.0544,-0.38
1764313271320,1.2168,3.2273,8.881,-0.0276,0.0544,-0.38
1764313271330,1.2168,3.2273,8.881,-0.0586,-0.0666,-0.4084
1764313271340,0.9302,3.2339,8.9575,-0.0586,-0.0666,-0.4084
1764313271350,0.9302,3.2339,8.9575,-0.0023,-0.2636,-0.4042
1764313271360,0.8261,3.1346,9.5222,-0.0023,-0.2636,-0.4042
1764313271370,0.8261,3.1346,9.5222,-0.0023,-0.2636,-0.4042
1764313271380,0.8261,3.1346,9.5222,0.0832,-0.2902,-0.3572
1764313271390,0.941,2.9527,9.8764,0.0832,-0.2902,-0.3572
1764313271400,0.941,2.9527,9.8764,0.215,-0.2556,-0.3176
1764313271410,0.9045,3.1938,9.3625,0.215,-0.2556,-0.3176
1764313271420,0.9045,3.1938,9.3625,0.1842,-0.1636,-0.2805
1764313271430,1.0881,3.4439,8.747,0.1842,-0.1636,-0.2805
1764313271440,1.0881,3.4439,8.747,0.0049,-0.0925,-0.2729
1764313271450,0.8584,3.6335,8.4742,0.0049,-0.0925,-0.2729
1764313271460,0.8584,3.6335,8.4742,-0.1063,-0.1648,-0.2737
1764313271470,0.743,3.128,8.9886,-0.1063,-0.1648,-0.2737
1764313271480,0.743,3.128,8.9886,-0.0402,-0.4426,-0.2283
1764313271490,1.3813,3.3392,10.3047,-0.0402,-0.4426,-0.2283
1764313271500,1.3813,3.3392,10.3047,-0.0402,-0.4426,-0.2283
1764313271510,1.669,3.1813,10.7521,0.2265,-0.5105,-0.3108
1764313271520,1.669,3.1813,10.7521,0.2265,-0.5105,-0.3108
1764313271530,1.669,3.1813,10.7521,0.4354,-0.2514,-0.3352
1764313271540,1.1791,3.4026,9.5809,0.4354,-0.2514,-0.3352
1764313271550,1.1791,3.4026,9.5809,0.3995,-0.2373,-0.2906
1764313271560,0.9254,3.6784,9.2136,0.3995,-0.2373,-0.2906
1764313271570,0.9254,3.6784,9.2136,0.474,-0.5186,-0.2546
1764313271580,1.2042,3.8728,9.4756,0.474,-0.5186,-0.2546
1764313271590,1.2042,3.8728,9.4756,0.644,-0.7023,-0.2825
1764313271600,1.2269,3.8237,9.1962,0.644,-0.7023,-0.2825
1764313271610,1.2269,3.8237,9.1962,0.7607,-0.8318,-0.2827
1764313271620,1.0301,3.6784,8.4933,0.7607,-0.8318,-0.2827
1764313271630,1.0301,3.6784,8.4933,0.7607,-0.8318,-0.2827
1764313271640,1.2604,3.7932,8.5502,0.8777,-1.2109,-0.25
1764313271650,1.2604,3.7932,8.5502,0.8777,-1.2109,-0.25
1764313271660,1.2604,3.7932,8.5502,1.1139,-1.4536,-0.3009
1764313271670,0.3051,3.4235,8.7529,1.1139,-1.4536,-0.3009
1764313271680,0.3051,3.4235,8.7529,1.1571,-0.7596,0.0176
1764313271690,1.1934,3.9547,7.5984,1.1571,-0.7596,0.0176
1764313271700,1.1934,3.9547,7.5984,0.079,1.1609,0.4391
1764313271710,3.9805,4.4889,8.6273,0.079,1.1609,0.4391
1764313271720,3.9805,4.4889,8.6273,-1.9951,5.6975,0.5615
1764313271730,7.2826,6.725,7.2132,-1.9951,5.6975,0.5615
1764313271740,7.2826,6.725,7.2132,-4.9789,11.6141,0.1052
1764313271750,9.1992,8.4,3.5127,-4.9789,11.6141,0.1052
1764313271760,9.1992,8.4,3.5127,-4.9789,11.6141,0.1052
1764313271770,8.3061,7.3155,-0.3416,-7.7734,16.5382,-0.9956
1764313271780,8.3061,7.3155,-0.3416,-7.7734,16.5382,-0.9956
1764313271790,8.3061,7.3155,-0.3416,-8.2557,17.572,-2.7773
1764313271800,-2.5998,1.8299,-7.6558,-8.2557,17.572,-2.7773
1764313271810,-2.5998,1.8299,-7.6558,-4.6589,9.4055,-3.8998
1764313271820,-15.7095,-4.7396,-9.3817,-4.6589,9.4055,-3.8998
1764313271830,-15.7095,-4.7396,-9.3817,-0.0619,-2.6831,-3.5164
1764313271840,-17.0333,-10.1599,4.5912,-0.0619,-2.6831,-3.5164
1764313271850,-17.0333,-10.1599,4.5912,1.1464,-5.6032,-1.3292
1764313271860,-10.8377,-7.6923,12.9894,1.1464,-5.6032,-1.3292
1764313271870,-10.8377,-7.6923,12.9894,-0.2967,-1.6438,-0.2662
1764313271880,-9.8824,-4.9292,10.7677,-0.2967,-1.6438,-0.2662
1764313271890,-9.8824,-4.9292,10.7677,-1.1985,0.2628,-0.0867
1764313271900,-9.8824,-4.9292,10.7677,-1.1985,0.2628,-0.0867
1764313271910,-11.4329,-3.8991,8.6399,-1.1985,0.2628,-0.0867
1764313271920,-11.4329,-3.8991,8.6399,-0.3343,-1.5043,0.0655
1764313271930,-10.803,-3.1663,9.3559,-0.3343,-1.5043,0.0655
1764313271940,-10.803,-3.1663,9.3559,1.1672,-3.6934,0.2164
1764313271950,-9.3882,-2.9228,8.7159,1.1672,-3.6934,0.2164
1764313271960,-9.3882,-2.9228,8.7159,2.2452,-5.4376,0.4122
1764313271970,-6.3781,-2.4347,9.2794,2.2452,-5.4376,0.4122
1764313271980,-6.3781,-2.4347,9.2794,3.1237,-6.7881,0.3389
1764313271990,-4.1121,-1.7145,10.742,3.1237,-6.7881,0.3389
1764313272000,-4.1121,-1.7145,10.742,4.1265,-7.6616,0.1642
1764313272010,-2.7248,-1.0756,11.723,4.1265,-7.6616,0.1642
1764313272020,-2.7248,-1.0756,11.723,4.5383,-6.9967,0.2329
1764313272030,-0.9715,-0.2889,10.788,4.5383,-6.9967,0.2329
1764313272040,-0.9715,-0.2889,10.788,4.5383,-6.9967,0.2329
1764313272050,-0.9715,-0.2889,10.788,3.7044,-4.8956,0.42
1764313272060,0.4295,0.8219,9.871,3.7044,-4.8956,0.42
1764313272070,0.4295,0.8219,9.871,2.4195,-2.5044,0.5499
1764313272080,0.6042,1.6415,8.7996,2.4195,-2.5044,0.5499
1764313272090,0.6042,1.6415,8.7996,1.5154,-0.9479,0.6373
1764313272100,0.6239,2.4371,7.6875,1.5154,-0.9479,0.6373
1764313272110,0.6239,2.4371,7.6875,0.918,-0.128,0.6067
1764313272120,0.5946,2.8319,6.9326,0.918,-0.128,0.6067
1764313272130,0.5946,2.8319,6.9326,0.547,-0.1652,0.5067
1764313272140,0.0754,2.2026,7.8389,0.547,-0.1652,0.5067
1764313272150,0.0754,2.2026,7.8389,0.547,-0.1652,0.5067
1764313272160,0.1579,2.0273,8.8953,0.6623,-0.7178,0.5304
1764313272170,0.1579,2.0273,8.8953,0.6623,-0.7178,0.5304
1764313272180,0.8148,2.4299,8.9169,1.0814,-1.2746,0.5983
1764313272190,0.8148,2.4299,8.9169,1.0814,-1.2746,0.5983
1764313272200,0.8148,2.4299,8.9169,1.1909,-1.2729,0.6529
1764313272210,1.7336,2.9384,8.7757,1.1909,-1.2729,0.6529
1764313272220,1.7336,2.9384,8.7757,0.7521,-0.537,0.6903
1764313272230,2.0052,3.2046,8.8247,0.7521,-0.537,0.6903
1764313272240,2.0052,3.2046,8.8247,0.193,0.3574,0.7274
1764313272250,1.986,3.4187,8.3719,0.193,0.3574,0.7274
1764313272260,1.986,3.4187,8.3719,-0.118,0.6454,0.7106
1764313272270,1.7468,3.5097,8.3587,-0.118,0.6454,0.7106
1764313272280,1.7468,3.5097,8.3587,-0.118,0.4206,0.6348
1764313272290,1.7785,3.2094,9.0939,-0.118,0.4206,0.6348
1764313272300,1.7785,3.2094,9.0939,-0.118,0.4206,0.6348
1764313272310,1.7785,3.2094,9.0939,0.0754,0.1402,0.6052
1764313272320,1.9442,3.1358,9.3589,0.0754,0.1402,0.6052
1764313272330,1.9442,3.1358,9.3589,0.1626,0.1655,0.5681
1764313272340,1.5613,2.8941,8.8283,0.1626,0.1655,0.5681
1764313272350,1.5613,2.8941,8.8283,0.0591,0.1781,0.6232
1764313272360,1.5015,2.854,9.1059,0.0591,0.1781,0.6232
1764313272370,1.5015,2.854,9.1059,-0.0438,0.2544,0.6996
1764313272380,1.5266,2.8505,9.4929,-0.0438,0.2544,0.6996
1764313272390,1.5266,2.8505,9.4929,-0.0492,0.3422,0.7486
1764313272400,1.2443,2.4473,9.4983,-0.0492,0.3422,0.7486
1764313272410,1.2443,2.4473,9.4983,0.0493,0.3057,0.8218
1764313272420,1.5153,2.8152,9.2955,0.0493,0.3057,0.8218
1764313272430,1.5153,2.8152,9.2955,0.1324,-0.0363,0.8554
1764313272440,2.2367,2.747,9.7866,0.1324,-0.0363,0.8554
1764313272450,2.2367,2.747,9.7866,0.1324,-0.0363,0.8554
1764313272460,2.2367,2.747,9.7866,0.2766,-0.0687,0.7721
1764313272470,2.7344,2.9755,9.7675,0.2766,-0.0687,0.7721
1764313272480,2.7344,2.9755,9.7675,0.3702,-0.0015,0.6306
1764313272490,2.4903,3.2459,9.1155,0.3702,-0.0015,0.6306
1764313272500,2.4903,3.2459,9.1155,0.2807,0.073,0.5417
1764313272510,2.1691,3.0371,8.997,0.2807,0.073,0.5417
1764313272520,2.1691,3.0371,8.997,0.1568,0.0571,0.5641
1764313272530,2.1601,3.0263,9.3571,0.1568,0.0571,0.5641
1764313272540,2.1601,3.0263,9.3571,0.2162,-0.0092,0.6019
1764313272550,2.683,3.2859,9.5426,0.2162,-0.0092,0.6019
1764313272560,2.683,3.2859,9.5426,0.3328,-0.0111,0.5424
1764313272570,2.6052,3.4217,9.0706,0.3328,-0.0111,0.5424
1764313272580,2.6052,3.4217,9.0706,0.3328,-0.0111,0.5424
1764313272590,2.6052,3.4217,9.0706,0.3222,0.089,0.4711
1764313272600,2.7601,3.5019,8.8403,0.3222,0.089,0.4711
1764313272610,2.7601,3.5019,8.8403,0.1588,0.2673,0.4064
1764313272620,2.5633,3.399,8.5986,0.1588,0.2673,0.4064
1764313272630,2.5633,3.399,8.5986,-0.015,0.4705,0.3702
1764313272640,2.26,3.3721,8.2971,-0.015,0.4705,0.3702
1764313272650,2.26,3.3721,8.2971,-0.1691,0.5458,0.3658
1764313272660,2.4616,3.2841,8.814,-0.1691,0.5458,0.3658
1764313272670,2.4616,3.2841,8.814,-0.2972,0.8207,0.354
1764313272680,2.2684,3.1645,8.7039,-0.2972,0.8207,0.354
1764313272690,2.2684,3.1645,8.7039,-0.4281,0.9533,0.299
1764313272700,1.9657,2.8522,8.7852,-0.4281,0.9533,0.299
1764313272710,1.9657,2.8522,8.7852,-0.4281,0.9533,0.299
1764313272720,1.3478,2.6052,9.3655,-0.2798,0.5056,0.2028
1764313272730,1.3478,2.6052,9.3655,-0.2798,0.5056,0.2028
1764313272740,1.3478,2.6052,9.3655,0.1112,-0.1057,0.172
1764313272750,0.9763,2.4586,9.7884,0.1112,-0.1057,0.172
1764313272760,0.9763,2.4586,9.7884,0.3625,-0.4001,0.2757
1764313272770,1.3484,2.662,10.0702,0.3625,-0.4001,0.2757
1764313272780,1.3484,2.662,10.0702,0.4195,-0.2388,0.3772
1764313272790,2.2636,3.1328,10.0241,0.4195,-0.2388,0.3772
1764313272800,2.2636,3.1328,10.0241,0.2871,0.1998,0.3409
1764313272810,2.3342,3.5115,9.3015,0.2871,0.1998,0.3409
1764313272820,2.3342,3.5115,9.3015,0.1129,0.3835,0.2211
1764313272830,1.876,3.4552,9.0437,0.1129,0.3835,0.2211
1764313272840,1.876,3.4552,9.0437,0.1129,0.3835,0.2211
1764313272850,1.876,3.4552,9.0437,0.1026,0.2104,0.1571
1764313272860,1.5248,3.1729,9.1932,0.1026,0.2104,0.1571
1764313272870,1.5248,3.1729,9.1932,0.2509,-0.0938,0.1578
1764313272880,1.5494,3.0341,9.3272,0.2509,-0.0938,0.1578
1764313272890,1.5494,3.0341,9.3272,0.4261,-0.265,0.1718
1764313272900,1.9478,3.1711,9.1854,0.4261,-0.265,0.1718
1764313272910,1.9478,3.1711,9.1854,0.4435,-0.2173,0.1584
1764313272920,2.3462,3.3703,8.7924,0.4435,-0.2173,0.1584
1764313272930,2.3462,3.3703,8.7924,0.4073,-0.2752,0.0631
1764313272940,2.2798,3.4205,8.7625,0.4073,-0.2752,0.0631
1764313272950,2.2798,3.4205,8.7625,0.5169,-0.5939,-0.0573
1764313272960,1.4195,3.2112,9.1609,0.5169,-0.5939,-0.0573
1764313272970,1.4195,3.2112,9.1609,0.8554,-0.8331,-0.0447
1764313272980,1.2855,3.0514,8.6225,0.8554,-0.8331,-0.0447
1764313272990,1.2855,3.0514,8.6225,0.8554,-0.8331,-0.0447
1764313273000,1.2855,3.0514,8.6225,1.1081,-1.3656,0.1634
1764313273010,1.9065,2.9892,8.2953,1.1081,-1.3656,0.1634
1764313273020,1.9065,2.9892,8.2953,1.4267,-2.1793,0.2078
1764313273030,2.9258,3.2734,7.3125,1.4267,-2.1793,0.2078
1764313273040,2.9258,3.2734,7.3125,2.3262,-4.2038,-0.0687
1764313273050,3.7155,4.4028,7.5649,2.3262,-4.2038,-0.0687
1764313273060,3.7155,4.4028,7.5649,3.6979,-6.3458,-0.4328
1764313273070,4.471,5.0201,8.217,3.6979,-6.3458,-0.4328
1764313273080,4.471,5.0201,8.217,3.9189,-5.784,-0.3937
1764313273090,5.6088,5.9073,8.5364,3.9189,-5.784,-0.3937
1764313273100,5.6088,5.9073,8.5364,3.9189,-5.784,-0.3937
1764313273110,5.6088,5.9073,8.5364,1.956,-1.0166,0.2888
1764313273120,7.8927,7.0379,5.7218,1.956,-1.0166,0.2888
1764313273130,9.8692,8.6255,2.3623,-2.7631,7.1245,0.905
1764313273140,9.8692,8.6255,2.3623,-2.7631,7.1245,0.905
1764313273150,9.8692,8.6255,2.3623,-7.9183,14.4981,0.8887
1764313273160,10.0816,9.2602,3.7998,-7.9183,14.4981,0.8887
1764313273170,10.0816,9.2602,3.7998,-10.5619,19.1497,0.1087
1764313273180,6.6939,7.3603,3.3272,-10.5619,19.1497,0.1087
1764313273190,6.6939,7.3603,3.3272,-9.7131,19.0132,-0.9525
1764313273200,-1.48,1.3496,1.9083,-9.7131,19.0132,-0.9525
1764313273210,-1.48,1.3496,1.9083,-5.6251,12.6342,-1.4135
1764313273220,-10.4148,-2.4867,-0.8249,-5.6251,12.6342,-1.4135
1764313273230,-10.4148,-2.4867,-0.8249,-0.1486,1.7865,-1.648
1764313273240,-12.9081,-4.3884,0.6712,-0.1486,1.7865,-1.648
1764313273250,-12.9081,-4.3884,0.6712,-0.1486,1.7865,-1.648
1764313273260,-9.8842,-5.2768,6.5246,2.3718,-4.7072,-1.3211
1764313273270,-9.8842,-5.2768,6.5246,2.3718,-4.7072,-1.3211
1764313273280,-9.8842,-5.2768,6.5246,0.9653,-3.4442,-0.5017
1764313273290,-6.1131,-2.924,10.7378,0.9653,-3.4442,-0.5017
1764313273300,-6.1131,-2.924,10.7378,-0.6955,-0.3134,-0.4152
1764313273310,-6.3302,-1.9496,11.7039,-0.6955,-0.3134,-0.4152
1764313273320,-6.3302,-1.9496,11.7039,-0.4606,0.3884,-0.6148
1764313273330,-7.4483,-1.7898,10.5075,-0.4606,0.3884,-0.6148
1764313273340,-7.4483,-1.7898,10.5075,0.7343,-0.8476,-0.7286
1764313273350,-7.4913,-1.6714,9.0431,0.7343,-0.8476,-0.7286
1764313273360,-7.4913,-1.6714,9.0431,0.7343,-0.8476,-0.7286
1764313273370,-7.0887,-1.7641,8.3061,1.3948,-1.8524,-0.7223
1764313273380,-7.0887,-1.7641,8.3061,1.3948,-1.8524,-0.7223
1764313273390,-6.3446,-2.0243,8.7003,1.2824,-2.0485,-0.5461
1764313273400,-6.3446,-2.0243,8.7003,1.2824,-2.0485,-0.5461
1764313273410,-6.3446,-2.0243,8.7003,1.0556,-1.9178,-0.345
1764313273420,-5.3934,-1.8347,9.4672,1.0556,-1.9178,-0.345
1764313273430,-5.3934,-1.8347,9.4672,1.3106,-2.186,-0.2834
1764313273440,-4.6744,-1.2508,8.9175,1.3106,-2.186,-0.2834
1764313273450,-4.6744,-1.2508,8.9175,2.0527,-3.5412,-0.4374
1764313273460,-4.4333,-0.8758,8.4897,2.0527,-3.5412,-0.4374
1764313273470,-4.4333,-0.8758,8.4897,3.1371,-5.6478,-0.6031
1764313273480,-2.7996,-0.0688,9.0879,3.1371,-5.6478,-0.6031
1764313273490,-2.7996,-0.0688,9.0879,4.0383,-7.0712,-0.8135
1764313273500,-0.3936,0.9362,10.3035,4.0383,-7.0712,-0.8135
1764313273510,-0.3936,0.9362,10.3035,4.0383,-7.0712,-0.8135
1764313273520,0.0132,1.3047,10.7551,4.0827,-6.6538,-0.9858
1764313273530,0.0132,1.3047,10.7551,4.0827,-6.6538,-0.9858
1764313273540,0.0132,1.3047,10.7551,3.047,-4.3341,-0.6773
1764313273550,0.2632,1.6331,9.6604,3.047,-4.3341,-0.6773
1764313273560,0.2632,1.6331,9.6604,1.1836,-1.1559,-0.0912
1764313273570,1.4662,2.6907,7.6265,1.1836,-1.1559,-0.0912
1764313273580,1.4662,2.6907,7.6265,-0.5339,1.0809,0.1419
1764313273590,2.3258,3.5809,6.454,-0.5339,1.0809,0.1419
1764313273600,2.3258,3.5809,6.454,-1.169,1.1231,-0.1684
1764313273610,2.0512,3.7711,7.9059,-1.169,1.1231,-0.1684
1764313273620,2.0512,3.7711,7.9059,-0.553,-0.0287,-0.6642
1764313273630,1.0175,2.4676,9.8507,-0.553,-0.0287,-0.6642
1764313273640,1.0175,2.4676,9.8507,0.3483,-0.8839,-0.8019
1764313273650,0.6401,1.7515,9.7567,0.3483,-0.8839,-0.8019
1764313273660,0.6401,1.7515,9.7567,0.3483,-0.8839,-0.8019
1764313273670,1.3543,2.141,9.5821,0.5493,-0.9516,-0.6661
1764313273680,1.3543,2.141,9.5821,0.5493,-0.9516,-0.6661
1764313273690,1.3543,2.141,9.5821,0.2118,-0.4216,-0.5814
1764313273700,1.3765,2.1422,10.3113,0.2118,-0.4216,-0.5814
1764313273710,1.3765,2.1422,10.3113,-0.1843,0.368,-0.4931
1764313273720,0.1513,1.4387,10.203,-0.1843,0.368,-0.4931
1764313273730,0.1513,1.4387,10.203,-0.2002,0.6118,-0.2069
1764313273740,-0.2315,2.3007,8.884,-0.2002,0.6118,-0.2069
1764313273750,-0.2315,2.3007,8.884,-0.1037,-0.0099,-0.0585
1764313273760,0.8614,2.6225,9.329,-0.1037,-0.0099,-0.0585
1764313273770,0.8614,2.6225,9.329,0.1243,-0.5513,-0.2136
1764313273780,1.6863,2.6877,10.2221,0.1243,-0.5513,-0.2136
1764313273790,1.6863,2.6877,10.2221,0.1243,-0.5513,-0.2136
1764313273800,1.6971,2.7123,10.2473,0.3067,-0.5736,-0.4745
1764313273810,1.6971,2.7123,10.2473,0.3067,-0.5736,-0.4745
1764313273820,1.6971,2.7123,10.2473,0.2668,-0.2608,-0.629
1764313273830,1.0929,2.54,9.8201,0.2668,-0.2608,-0.629
1764313273840,1.0929,2.54,9.8201,0.0954,0.049,-0.6332
1764313273850,0.4146,2.586,9.1854,0.0954,0.049,-0.6332
1764313273860,0.4146,2.586,9.1854,0.0017,-0.0812,-0.5786
1764313273870,0.3829,2.6417,9.4804,0.0017,-0.0812,-0.5786
1764313273880,0.3829,2.6417,9.4804,0.1446,-0.4175,-0.5405
1764313273890,0.8471,2.72,9.9936,0.1446,-0.4175,-0.5405
1764313273900,0.8471,2.72,9.9936,0.3636,-0.5415,-0.566
1764313273910,1.0875,2.6351,9.9314,0.3636,-0.5415,-0.566
1764313273920,1.0875,2.6351,9.9314,0.3636,-0.5415,-0.566
1764313273930,0.9619,2.6512,9.4098,0.3963,-0.3517,-0.5644
1764313273940,0.9619,2.6512,9.4098,0.3963,-0.3517,-0.5644
1764313273950,0.9619,2.6512,9.4098,0.2763,-0.0932,-0.5444
1764313273960,0.4499,2.8247,8.3827,0.2763,-0.0932,-0.5444
1764313273970,0.4499,2.8247,8.3827,0.0887,-0.0816,-0.4769
1764313273980,0.3846,2.881,8.4245,0.0887,-0.0816,-0.4769
1764313273990,0.3846,2.881,8.4245,-0.0318,-0.2728,-0.4716
1764313274000,0.6861,2.8558,9.2524,-0.0318,-0.2728,-0.4716
1764313274010,0.6861,2.8558,9.2524,0.0652,-0.2787,-0.5118
1764313274020,0.9823,2.8636,9.265,0.0652,-0.2787,-0.5118
1764313274030,0.9823,2.8636,9.265,0.0472,-0.255,-0.566
1764313274040,0.5468,2.6812,9.0227,0.0472,-0.255,-0.566
1764313274050,0.5468,2.6812,9.0227,-0.0012,-0.2691,-0.5014
1764313274060,0.3577,2.6961,9.3129,-0.0012,-0.2691,-0.5014
1764313274070,0.3577,2.6961,9.3129,-0.0012,-0.2691,-0.5014
1764313274080,0.3577,2.6961,9.3129,-0.0481,-0.2271,-0.3908
1764313274090,0.664,2.8122,9.7663,-0.0481,-0.2271,-0.3908
1764313274100,0.664,2.8122,9.7663,-0.0586,-0.1101,-0.3245
1764313274110,1.0654,2.985,10.0128,-0.0586,-0.1101,-0.3245
1764313274120,1.0654,2.985,10.0128,-0.006,-0.0722,-0.3531
1764313274130,0.8961,2.9545,10.2544,-0.006,-0.0722,-0.3531
1764313274140,0.8961,2.9545,10.2544,0.0576,-0.0153,-0.338
1764313274150,0.5982,2.8684,9.9577,0.0576,-0.0153,-0.338
1764313274160,0.5982,2.8684,9.9577,0.1156,-0.0214,-0.2912
1764313274170,0.7065,3.0706,9.4277,0.1156,-0.0214,-0.2912
1764313274180,0.7065,3.0706,9.4277,0.1144,-0.0938,-0.3005
1764313274190,0.8931,3.1968,9.5868,0.1144,-0.0938,-0.3005
1764313274200,0.8931,3.1968,9.5868,0.1144,-0.0938,-0.3005
1764313274210,0.8931,3.1968,9.5868,0.1016,-0.0377,-0.3607
1764313274220,0.5492,2.8493,9.7531,0.1016,-0.0377,-0.3607
1764313274230,0.5492,2.8493,9.7531,0.1846,-0.0441,-0.3245
1764313274240,0.3541,2.8989,9.6096,0.1846,-0.0441,-0.3245
1764313274250,0.3541,2.8989,9.6096,0.2854,-0.1355,-0.2757
1764313274260,0.5372,3.1172,9.5222,0.2854,-0.1355,-0.2757
1764313274270,0.5372,3.1172,9.5222,0.2854,-0.1355,-0.2757
