Timestamp,ax,ay,az,gx,gy,gz
1764313252290,1.605,3.2225,8.9922,0.1645,-0.6075,-0.7503
1764313252300,1.605,3.2225,8.9922,0.1645,-0.6075,-0.7503
1764313252310,1.2508,2.817,9.7376,0.3042,-0.991,-0.7862
1764313252320,1.2508,2.817,9.7376,0.3042,-0.991,-0.7862
1764313252330,1.2508,2.817,9.7376,0.6214,-1.2451,-0.7448
1764313252340,1.002,2.8618,9.8375,0.6214,-1.2451,-0.7448
1764313252350,1.002,2.8618,9.8375,0.8289,-1.248,-0.5464
1764313252360,1.2173,3.1932,8.7368,0.8289,-1.248,-0.5464
1764313252370,1.2173,3.1932,8.7368,0.7471,-1.2,-0.3989
1764313252380,1.4871,3.5097,8.415,0.7471,-1.2,-0.3989
1764313252390,1.4871,3.5097,8.415,0.5522,-0.9064,-0.2747
1764313252400,2.3707,3.8273,9.2124,0.5522,-0.9064,-0.2747
1764313252410,2.3707,3.8273,9.2124,0.5522,-0.9064,-0.2747
1764313252420,4.8879,4.3932,12.1717,0.1339,0.319,-0.1486
1764313252430,4.8879,4.3932,12.1717,-0.8705,4.1162,-0.1257
1764313252440,7.3902,5.2708,12.4606,-0.8705,4.1162,-0.1257
1764313252450,7.3902,5.2708,12.4606,-0.8705,4.1162,-0.1257
1764313252460,9.0036,5.8732,7.392,-3.0586,10.7613,-0.2518
1764313252470,9.0036,5.8732,7.392,-3.0586,10.7613,-0.2518
1764313252480,9.0036,5.8732,7.392,-6.0595,16.9194,-0.6359
1764313252490,7.1868,5.9833,2.7577,-6.0595,16.9194,-0.6359
1764313252500,7.1868,5.9833,2.7577,-7.3011,18.7276,-1.3176
1764313252510,-0.4343,2.9874,-2.1308,-7.3011,18.7276,-1.3176
1764313252520,-0.4343,2.9874,-2.1308,-4.5836,13.2197,-1.7501
1764313252530,-10.6756,1.2634,-7.8915,-4.5836,13.2197,-1.7501
1764313252540,-10.6756,1.2634,-7.8915,0.1933,2.3137,-2.467
1764313252550,-15.3942,-2.1517,-5.8863,0.1933,2.3137,-2.467
1764313252560,-15.3942,-2.1517,-5.8863,2.215,-4.9886,-2.0178
1764313252570,-13.4877,-5.8301,5.0219,2.215,-4.9886,-2.0178
1764313252580,-13.4877,-5.8301,5.0219,2.215,-4.9886,-2.0178
1764313252590,-9.3906,-2.9222,9.4116,1.0791,-3.9292,-0.4665
1764313252600,-9.3906,-2.9222,9.4116,1.0791,-3.9292,-0.4665
1764313252610,-9.3906,-2.9222,9.4116,-0.5663,-0.4578,-0.0524
1764313252620,-9.3607,-1.0193,7.861,-0.5663,-0.4578,-0.0524
1764313252630,-9.3607,-1.0193,7.861,-0.7242,-0.1457,-0.2625
1764313252640,-10.8742,-1.5446,7.2024,-0.7242,-0.1457,-0.2625
1764313252650,-10.8742,-1.5446,7.2024,0.5632,-2.4482,-0.3025
1764313252660,-10.6086,-1.8652,7.2646,0.5632,-2.4482,-0.3025
1764313252670,-10.6086,-1.8652,7.2646,2.0782,-5.0473,-0.2213
1764313252680,-9.0437,-1.9298,7.1007,2.0782,-5.0473,-0.2213
1764313252690,-9.0437,-1.9298,7.1007,3.3674,-7.5677,-0.1058
1764313252700,-7.0558,-1.4148,7.858,3.3674,-7.5677,-0.1058
1764313252710,-7.0558,-1.4148,7.858,3.3674,-7.5677,-0.1058
1764313252720,-4.1121,-0.2548,9.2806,4.5448,-9.6225,-0.0081
1764313252730,-4.1121,-0.2548,9.2806,4.5448,-9.6225,-0.0081
1764313252740,-4.1121,-0.2548,9.2806,5.2725,-10.2221,0.1837
1764313252750,-0.3123,1.6959,12.073,5.2725,-10.2221,0.1837
1764313252760,-0.3123,1.6959,12.073,4.5618,-7.2809,0.2717
1764313252770,1.279,2.6716,10.9914,4.5618,-7.2809,0.2717
1764313252780,1.279,2.6716,10.9914,2.4609,-2.9262,0.4004
1764313252790,1.7228,3.5557,8.9175,2.4609,-2.9262,0.4004
1764313252800,1.7228,3.5557,8.9175,0.454,0.4297,0.4778
1764313252810,0.868,4.2479,6.786,0.454,0.4297,0.4778
1764313252820,0.868,4.2479,6.786,-0.5143,1.3131,0.3462
1764313252830,0.0748,4.084,7.127,-0.5143,1.3131,0.3462
1764313252840,0.0748,4.084,7.127,-0.5143,1.3131,0.3462
1764313252850,-0.539,3.3153,8.2181,-0.2758,0.4959,0.0974
1764313252860,-0.539,3.3153,8.2181,-0.2758,0.4959,0.0974
1764313252870,-0.7478,2.6626,8.7703,0.4516,-0.5611,-0.0385
1764313252880,-0.7478,2.6626,8.7703,0.4516,-0.5611,-0.0385
1764313252890,-0.7478,2.6626,8.7703,0.7292,-0.9113,-0.0093
1764313252900,-0.877,2.1918,9.1454,0.7292,-0.9113,-0.0093
1764313252910,-0.877,2.1918,9.1454,0.5655,-0.5521,0.232
1764313252920,-0.5025,2.4616,9.1663,0.5655,-0.5521,0.232
1764313252930,-0.5025,2.4616,9.1663,0.2492,0.0009,0.483
1764313252940,0.1484,3.1472,8.9408,0.2492,0.0009,0.483
1764313252950,0.1484,3.1472,8.9408,0.0357,0.3076,0.5507
1764313252960,0.6329,3.5844,8.9282,0.0357,0.3076,0.5507
1764313252970,0.6329,3.5844,8.9282,-0.0299,0.3216,0.4549
1764313252980,0.5683,3.7902,8.9157,-0.0299,0.3216,0.4549
1764313252990,0.5683,3.7902,8.9157,-0.0299,0.3216,0.4549
1764313253000,0.5683,3.7902,8.9157,0.0263,0.1487,0.3586
1764313253010,0.5216,3.746,8.8762,0.0263,0.1487,0.3586
1764313253020,0.5216,3.746,8.8762,0.0597,-0.0434,0.3395
1764313253030,0.4193,3.4325,9.5761,0.0597,-0.0434,0.3395
1764313253040,0.4193,3.4325,9.5761,0.1029,0.016,0.4018
1764313253050,0.4612,3.3535,9.4373,0.1029,0.016,0.4018
1764313253060,0.4612,3.3535,9.4373,0.1611,-0.0136,0.4635
1764313253070,0.6969,3.5402,9.2255,0.1611,-0.0136,0.4635
1764313253080,0.6969,3.5402,9.2255,0.2297,-0.1155,0.4636
1764313253090,0.7448,3.6485,9.3356,0.2297,-0.1155,0.4636
1764313253100,0.7448,3.6485,9.3356,0.2022,-0.0136,0.4652
1764313253110,0.2662,3.1364,9.3224,0.2022,-0.0136,0.4652
1764313253120,0.2662,3.1364,9.3224,0.2022,-0.0136,0.4652
1764313253130,0.198,3.4217,8.9665,0.1135,0.232,0.5939
1764313253140,0.198,3.4217,8.9665,0.1135,0.232,0.5939
1764313253150,0.198,3.4217,8.9665,-0.0348,0.2421,0.7682
1764313253160,0.4869,3.3242,9.1179,-0.0348,0.2421,0.7682
1764313253170,0.4869,3.3242,9.1179,0.0922,-0.0168,0.7561
1764313253180,0.7723,3.5378,9.2495,0.0922,-0.0168,0.7561
1764313253190,0.7723,3.5378,9.2495,0.3974,-0.4404,0.655
1764313253200,1.0558,3.8638,8.9874,0.3974,-0.4404,0.655
1764313253210,1.0558,3.8638,8.9874,0.5362,-0.6672,0.5362
1764313253220,1.0786,3.7968,9.1406,0.5362,-0.6672,0.5362
1764313253230,1.0786,3.7968,9.1406,0.4581,-0.4352,0.5067
1764313253240,1.0349,3.5426,9.4307,0.4581,-0.4352,0.5067
1764313253250,1.0349,3.5426,9.4307,0.4581,-0.4352,0.5067
1764313253260,1.0349,3.5426,9.4307,0.2874,0.0938,0.5873
1764313253270,1.0032,3.6467,8.9414,0.2874,0.0938,0.5873
1764313253280,1.0032,3.6467,8.9414,0.1323,0.3833,0.6611
1764313253290,0.941,3.8267,8.1009,0.1323,0.3833,0.6611
1764313253300,0.941,3.8267,8.1009,0.0993,0.1057,0.666
1764313253310,1.1426,3.8411,8.1643,0.0993,0.1057,0.666
1764313253320,1.1426,3.8411,8.1643,0.2376,-0.3815,0.6257
1764313253330,1.5757,3.6832,8.8421,0.2376,-0.3815,0.6257
1764313253340,1.5757,3.6832,8.8421,0.3477,-0.4578,0.5861
1764313253350,1.8826,3.4122,9.402,0.3477,-0.4578,0.5861
1764313253360,1.8826,3.4122,9.402,0.3477,-0.4578,0.5861
1764313253370,1.8981,3.3769,9.2046,0.2984,-0.0278,0.6074
1764313253380,1.8981,3.3769,9.2046,0.1347,0.3906,0.6448
1764313253390,1.7659,3.6772,8.5579,0.1347,0.3906,0.6448
1764313253400,1.7659,3.6772,8.5579,0.1347,0.3906,0.6448
1764313253410,1.7659,3.6772,8.5579,0.1061,0.2666,0.6081
1764313253420,1.7001,3.9206,8.3545,0.1061,0.2666,0.6081
1764313253430,1.7001,3.9206,8.3545,0.1674,-0.1078,0.567
1764313253440,1.8682,3.8895,9.064,0.1674,-0.1078,0.567
1764313253450,1.8682,3.8895,9.064,0.2451,-0.2124,0.5548
1764313253460,1.919,3.5797,9.6203,0.2451,-0.2124,0.5548
1764313253470,1.919,3.5797,9.6203,0.2793,-0.0368,0.6468
1764313253480,2.1039,3.6054,9.5521,0.2793,-0.0368,0.6468
1764313253490,2.1039,3.6054,9.5521,0.237,0.2098,0.7341
1764313253500,2.6022,3.95,9.0849,0.237,0.2098,0.7341
1764313253510,2.6022,3.95,9.0849,0.237,0.2098,0.7341
1764313253520,2.8648,4.2724,8.589,0.1697,0.3004,0.695
1764313253530,2.8648,4.2724,8.589,0.1697,0.3004,0.695
1764313253540,2.784,4.4459,8.6399,0.1901,0.102,0.5521
1764313253550,2.784,4.4459,8.6399,0.1901,0.102,0.5521
1764313253560,2.784,4.4459,8.6399,0.3302,-0.15,0.4221
1764313253570,2.6225,4.0947,8.9312,0.3302,-0.15,0.4221
1764313253580,2.6225,4.0947,8.9312,0.3725,-0.0673,0.42
1764313253590,2.5107,4.0152,8.7547,0.3725,-0.0673,0.42
1764313253600,2.5107,4.0152,8.7547,0.2671,0.2005,0.4684
1764313253610,2.5615,4.1049,8.4096,0.2671,0.2005,0.4684
1764313253620,2.5615,4.1049,8.4096,0.1518,0.2782,0.4774
1764313253630,2.7362,4.3137,8.2582,0.1518,0.2782,0.4774
1764313253640,2.7362,4.3137,8.2582,0.1692,0.051,0.3745
1764313253650,2.7505,4.267,8.528,0.1692,0.051,0.3745
1764313253660,2.7505,4.267,8.528,0.1692,0.051,0.3745
1764313253670,2.5573,4.1186,8.9091,0.3396,-0.2776,0.2465
1764313253680,2.5573,4.1186,8.9091,0.3396,-0.2776,0.2465
1764313253690,2.5573,4.1186,8.9091,0.4612,-0.3308,0.2222
1764313253700,2.4293,3.9835,8.6489,0.4612,-0.3308,0.2222
1764313253710,2.4293,3.9835,8.6489,0.3671,-0.1355,0.3063
1764313253720,2.5472,4.2802,8.0112,0.3671,-0.1355,0.3063
1764313253730,2.5472,4.2802,8.0112,0.1159,0.0174,0.3813
1764313253740,2.6722,4.468,7.745,0.1159,0.0174,0.3813
1764313253750,2.6722,4.468,7.745,-0.1006,-0.0593,0.392
1764313253760,2.9061,4.2939,8.6273,-0.1006,-0.0593,0.392
1764313253770,2.9061,4.2939,8.6273,-0.0354,-0.1604,0.3574
1764313253780,2.9049,4.0211,9.2507,-0.0354,-0.1604,0.3574
1764313253790,2.9049,4.0211,9.2507,-0.0354,-0.1604,0.3574
1764313253800,2.8935,4.1539,8.6584,0.1274,-0.0919,0.3584
1764313253810,2.8935,4.1539,8.6584,0.1274,-0.0919,0.3584
1764313253820,2.8935,4.1539,8.6584,0.1494,-0.0072,0.3793
1764313253830,3.1382,4.5188,7.7163,0.1494,-0.0072,0.3793
1764313253840,3.1382,4.5188,7.7163,0.1069,-0.1529,0.3036
1764313253850,3.6706,4.8335,7.4782,0.1069,-0.1529,0.3036
1764313253860,3.6706,4.8335,7.4782,0.1245,-0.4612,0.0837
1764313253870,3.7454,4.5482,7.995,0.1245,-0.4612,0.0837
1764313253880,3.7454,4.5482,7.995,0.2437,-0.6884,-0.0922
1764313253890,3.122,4.0451,8.4646,0.2437,-0.6884,-0.0922
1764313253900,3.122,4.0451,8.4646,0.3053,-0.5727,-0.0492
1764313253910,2.3001,4.1061,8.3139,0.3053,-0.5727,-0.0492
1764313253920,2.3001,4.1061,8.3139,0.3053,-0.5727,-0.0492
1764313253930,2.3563,3.5509,8.6447,0.2662,-0.1359,0.0544
1764313253940,2.3563,3.5509,8.6447,0.2662,-0.1359,0.0544
1764313253950,2.3563,3.5509,8.6447,-0.0571,1.2947,0.4591
1764313253960,4.9519,3.7681,10.2347,-0.0571,1.2947,0.4591
1764313253970,4.9519,3.7681,10.2347,-1.1794,5.3106,0.5939
1764313253980,8.3234,5.9091,11.324,-1.1794,5.3106,0.5939
1764313253990,8.3234,5.9091,11.324,-3.6253,12.4036,0.5609
1764313254000,14.1254,8.1386,8.3234,-3.6253,12.4036,0.5609
1764313254010,14.1254,8.1386,8.3234,-7.1387,19.7992,-0.2897
1764313254020,14.3922,8.9683,4.5673,-7.1387,19.7992,-0.2897
1764313254030,14.3922,8.9683,4.5673,-6.9753,20.4621,-1.9248
1764313254040,2.3498,4.4447,-2.811,-6.9753,20.4621,-1.9248
1764313254050,2.3498,4.4447,-2.811,-1.2268,10.7075,-3.5505
1764313254060,-15.0012,-0.6538,-13.3406,-1.2268,10.7075,-3.5505
1764313254070,-15.0012,-0.6538,-13.3406,-1.2268,10.7075,-3.5505
1764313254080,-19.3735,-8.9031,-4.6642,3.2327,-2.8086,-3.8556
1764313254090,-19.3735,-8.9031,-4.6642,3.2327,-2.8086,-3.8556
1764313254100,-19.3735,-8.9031,-4.6642,2.0536,-6.4162,-1.3303
1764313254110,-11.4628,-5.732,10.5601,2.0536,-6.4162,-1.3303
1764313254120,-11.4628,-5.732,10.5601,-0.2799,-1.7584,-0.1888
1764313254130,-9.0909,-2.388,10.34,-0.2799,-1.7584,-0.1888
1764313254140,-9.0909,-2.388,10.34,-0.9291,0.3691,-0.2679
1764313254150,-10.6205,-1.949,7.1671,-0.9291,0.3691,-0.2679
1764313254160,-10.6205,-1.949,7.1671,0.2019,-1.779,-0.2983
1764313254170,-10.3926,-1.2461,6.5533,0.2019,-1.779,-0.2983
1764313254180,-10.3926,-1.2461,6.5533,1.5792,-4.3165,-0.3141
1764313254190,-8.8965,-1.1928,5.2534,1.5792,-4.3165,-0.3141
1764313254200,-8.8965,-1.1928,5.2534,1.5792,-4.3165,-0.3141
1764313254210,-8.8965,-1.1928,5.2534,2.173,-6.3203,-0.2292
1764313254220,-6.0652,-0.4977,5.6118,2.173,-6.3203,-0.2292
1764313254230,-6.0652,-0.4977,5.6118,2.6177,-8.1242,-0.3131
1764313254240,-2.5747,0.3763,8.3856,2.6177,-8.1242,-0.3131
1764313254250,-2.5747,0.3763,8.3856,3.2327,-9.0875,-0.6136
1764313254260,-0.0682,1.0211,11.3958,3.2327,-9.0875,-0.6136
1764313254270,-0.0682,1.0211,11.3958,3.3593,-8.1198,-0.8172
1764313254280,0.8979,0.7304,11.7218,3.3593,-8.1198,-0.8172
1764313254290,0.8979,0.7304,11.7218,3.0033,-6.7137,-0.7981
1764313254300,1.6205,1.3484,11.4174,3.0033,-6.7137,-0.7981
1764313254310,1.6205,1.3484,11.4174,3.0033,-6.7137,-0.7981
1764313254320,2.3689,2.5729,11.0387,2.9745,-5.8107,-0.7705
1764313254330,2.3689,2.5729,11.0387,2.7504,-4.3516,-0.6698
1764313254340,3.0132,3.1059,10.1922,2.7504,-4.3516,-0.6698
1764313254350,3.0132,3.1059,10.1922,2.7504,-4.3516,-0.6698
1764313254360,3.0132,3.1059,10.1922,1.5229,-1.6898,-0.4055
1764313254370,2.7613,3.1059,8.2373,1.5229,-1.6898,-0.4055
1764313254380,2.7613,3.1059,8.2373,0.1637,0.3125,-0.1022
1764313254390,2.5537,3.3607,7.6427,0.1637,0.3125,-0.1022
1764313254400,2.5537,3.3607,7.6427,-0.2863,0.6802,-0.0089
1764313254410,2.817,4.0074,7.6893,-0.2863,0.6802,-0.0089
1764313254420,2.817,4.0074,7.6893,0.0318,0.0418,-0.1362
1764313254430,3.2148,4.2162,7.6887,0.0318,0.0418,-0.1362
1764313254440,3.2148,4.2162,7.6887,0.2156,-0.4336,-0.3031
1764313254450,3.4923,3.9422,8.391,0.2156,-0.4336,-0.3031
1764313254460,3.4923,3.9422,8.391,0.2156,-0.4336,-0.3031
1764313254470,3.2865,3.734,8.793,0.0988,-0.2734,-0.3708
1764313254480,3.2865,3.734,8.793,0.0988,-0.2734,-0.3708
1764313254490,3.2865,3.734,8.793,-0.1271,0.2624,-0.3554
1764313254500,2.9306,3.5797,8.2678,-0.1271,0.2624,-0.3554
1764313254510,2.9306,3.5797,8.2678,-0.3401,0.4462,-0.316
1764313254520,2.7936,3.6885,8.1852,-0.3401,0.4462,-0.316
1764313254530,2.7936,3.6885,8.1852,-0.2807,0.1274,-0.3508
1764313254540,2.7434,3.6162,8.6847,-0.2807,0.1274,-0.3508
1764313254550,2.7434,3.6162,8.6847,-0.0586,-0.2544,-0.4084
1764313254560,2.7727,3.481,9.2524,-0.0586,-0.2544,-0.4084
1764313254570,2.7727,3.481,9.2524,0.1106,-0.3574,-0.4424
1764313254580,2.7308,3.4744,9.134,0.1106,-0.3574,-0.4424
1764313254590,2.7308,3.4744,9.134,0.1106,-0.3574,-0.4424
1764313254600,3.0281,3.7214,8.5789,0.1014,-0.1973,-0.4235
1764313254610,3.0281,3.7214,8.5789,0.1014,-0.1973,-0.4235
1764313254620,2.8726,3.8345,8.4574,-0.0481,-0.058,-0.4705
1764313254630,2.8726,3.8345,8.4574,-0.0481,-0.058,-0.4705
1764313254640,2.8726,3.8345,8.4574,-0.1564,0.0089,-0.5203
1764313254650,2.5831,3.856,8.2684,-0.1564,0.0089,-0.5203
1764313254660,2.5831,3.856,8.2684,-0.1883,-0.1964,-0.5809
1764313254670,2.2337,3.4253,8.7517,-0.1883,-0.1964,-0.5809
1764313254680,2.2337,3.4253,8.7517,-0.0322,-0.4229,-0.5463
1764313254690,2.412,3.5432,8.8618,-0.0322,-0.4229,-0.5463
1764313254700,2.412,3.5432,8.8618,0.0533,-0.4717,-0.5475
1764313254710,2.5202,3.6407,8.8152,0.0533,-0.4717,-0.5475
1764313254720,2.5202,3.6407,8.8152,-0.0322,-0.3004,-0.5305
1764313254730,2.5304,3.661,8.8307,-0.0322,-0.3004,-0.5305
1764313254740,2.5304,3.661,8.8307,-0.0322,-0.3004,-0.5305
1764313254750,2.3533,3.5731,9.018,-0.1744,-0.1098,-0.5304
1764313254760,2.3533,3.5731,9.018,-0.1744,-0.1098,-0.5304
1764313254770,2.3533,3.5731,9.018,-0.1446,-0.1579,-0.5496
1764313254780,2.3294,3.5892,9.067,-0.1446,-0.1579,-0.5496
1764313254790,2.3294,3.5892,9.067,-0.0502,-0.2868,-0.5855
1764313254800,2.0961,3.6832,9.1854,-0.0502,-0.2868,-0.5855
1764313254810,2.0961,3.6832,9.1854,0.0049,-0.2755,-0.5261
1764313254820,1.651,3.2602,9.1693,0.0049,-0.2755,-0.5261
1764313254830,1.651,3.2602,9.1693,-0.0038,-0.0402,-0.3441
1764313254840,1.7503,3.5737,8.4993,-0.0038,-0.0402,-0.3441
1764313254850,1.7503,3.5737,8.4993,-0.1165,-0.0751,-0.1689
1764313254860,2.2026,3.816,8.5884,-0.1165,-0.0751,-0.1689
1764313254870,2.2026,3.816,8.5884,-0.1165,-0.0751,-0.1689
1764313254880,2.5902,3.8064,9.0544,-0.0767,-0.3239,-0.1907
1764313254890,2.5902,3.8064,9.0544,-0.0767,-0.3239,-0.1907
1764313254900,2.5902,3.8064,9.0544,0.0983,-0.4571,-0.3085
1764313254910,2.5765,3.8345,9.2183,0.0983,-0.4571,-0.3085
1764313254920,2.5765,3.8345,9.2183,0.2022,-0.4221,-0.3867
1764313254930,2.3067,3.6467,8.9791,0.2022,-0.4221,-0.3867
1764313254940,2.3067,3.6467,8.9791,0.1416,-0.212,-0.3648
1764313254950,2.1087,3.7633,8.7069,0.1416,-0.212,-0.3648
1764313254960,2.1087,3.7633,8.7069,-0.0037,-0.0307,-0.3196
1764313254970,1.8891,3.7472,8.2935,-0.0037,-0.0307,-0.3196
1764313254980,1.8891,3.7472,8.2935,-0.0767,-0.007,-0.2808
1764313254990,1.7216,3.6772,7.8981,-0.0767,-0.007,-0.2808
1764313255000,1.7216,3.6772,7.8981,-0.0767,-0.007,-0.2808
1764313255010,1.651,3.5862,8.0991,-0.1165,-0.1313,-0.2447
1764313255020,1.651,3.5862,8.0991,-0.1165,-0.1313,-0.2447
1764313255030,1.7563,3.5348,8.391,-0.1381,-0.1969,-0.1689
1764313255040,1.7563,3.5348,8.391,-0.1381,-0.1969,-0.1689
1764313255050,1.7563,3.5348,8.391,-0.1834,-0.2071,-0.0756
1764313255060,2.6016,3.6915,9.3206,-0.1834,-0.2071,-0.0756
1764313255070,2.6016,3.6915,9.3206,-0.1182,-0.1472,-0.0785
1764313255080,2.8397,3.9356,9.606,-0.1182,-0.1472,-0.0785
1764313255090,2.8397,3.9356,9.606,0.0182,-0.0874,-0.1688
1764313255100,2.656,3.9129,9.5599,0.0182,-0.0874,-0.1688
1764313255110,2.656,3.9129,9.5599,0.1808,-0.2401,-0.1877
1764313255120,2.5394,3.926,9.4439,0.1808,-0.2401,-0.1877
1764313255130,2.5394,3.926,9.4439,0.3989,-0.4168,-0.2056
1764313255140,2.2648,3.9607,9.07,0.3989,-0.4168,-0.2056
1764313255150,2.2648,3.9607,9.07,0.3989,-0.4168,-0.2056
1764313255160,2.2648,3.9607,9.07,0.5655,-0.693,-0.1819
1764313255170,2.3306,4.0469,9.2967,0.5655,-0.693,-0.1819
1764313255180,2.3306,4.0469,9.2967,0.693,-0.7556,-0.1323
1764313255190,2.8415,4.1204,9.6419,0.693,-0.7556,-0.1323
1764313255200,2.8415,4.1204,9.6419,0.7776,-0.5244,-0.1042
1764313255210,2.9689,4.3292,9.1789,0.7776,-0.5244,-0.1042
1764313255220,2.9689,4.3292,9.1789,0.8063,-0.3674,-0.1058
1764313255230,2.4778,4.5033,8.2397,0.8063,-0.3674,-0.1058
1764313255240,2.4778,4.5033,8.2397,0.8083,-0.5015,-0.0727
1764313255250,1.9896,4.7282,7.5386,0.8083,-0.5015,-0.0727
1764313255260,1.9896,4.7282,7.5386,0.9186,-1.0061,-0.0116
1764313255270,1.9896,4.7282,7.5386,0.9186,-1.0061,-0.0116
1764313255280,2.3037,4.9896,7.8311,0.9186,-1.0061,-0.0116
1764313255290,3.076,5.0471,7.785,1.1348,-1.4195,0.0507
1764313255300,3.076,5.0471,7.785,1.1348,-1.4195,0.0507
1764313255310,3.076,5.0471,7.785,1.2078,-1.4505,-0.0055
1764313255320,3.0455,5.0285,7.5135,1.2078,-1.4505,-0.0055
1764313255330,3.0455,5.0285,7.5135,1.157,-1.1732,0.0212
1764313255340,3.1741,4.9454,7.273,1.157,-1.1732,0.0212
1764313255350,3.1741,4.9454,7.273,0.8201,-0.2682,0.1952
1764313255360,4.617,5.2469,8.1691,0.8201,-0.2682,0.1952
1764313255370,4.617,5.2469,8.1691,-0.3525,2.7926,0.4209
1764313255380,7.4572,6.3123,8.6016,-0.3525,2.7926,0.4209
1764313255390,7.4572,6.3123,8.6016,-2.9132,8.8047,0.3268
1764313255400,9.6108,8.0207,5.6728,-2.9132,8.8047,0.3268
1764313255410,9.6108,8.0207,5.6728,-2.9132,8.8047,0.3268
1764313255420,9.6108,8.0207,5.6728,-6.2305,15.4399,-0.0475
1764313255430,9.3637,8.6393,1.0451,-6.2305,15.4399,-0.0475
1764313255440,9.3637,8.6393,1.0451,-8.5193,18.7981,-0.8957
1764313255450,4.2544,6.8686,-1.4806,-8.5193,18.7981,-0.8957
1764313255460,4.2544,6.8686,-1.4806,-7.3096,15.6876,-1.8608
1764313255470,-5.2002,2.7823,-4.9035,-7.3096,15.6876,-1.8608
1764313255480,-5.2002,2.7823,-4.9035,-3.0568,6.3331,-2.792
1764313255490,-13.2658,-2.5394,-3.7184,-3.0568,6.3331,-2.792
1764313255500,-13.2658,-2.5394,-3.7184,0.3111,-2.503,-2.823
1764313255510,-15.7579,-7.7492,4.1665,0.3111,-2.503,-2.823
1764313255520,-15.7579,-7.7492,4.1665,0.7292,-4.7113,-1.1185
1764313255530,-11.811,-6.3248,9.7352,0.7292,-4.7113,-1.1185
1764313255540,-11.811,-6.3248,9.7352,-0.4123,-2.5018,0.0368
1764313255550,-9.1777,-3.0245,10.4865,-0.4123,-2.5018,0.0368
1764313255560,-9.1777,-3.0245,10.4865,-0.4123,-2.5018,0.0368
1764313255570,-9.1777,-3.0245,10.4865,-0.909,-1.0301,0.2372
1764313255580,-9.1101,-2.2187,8.5292,-0.909,-1.0301,0.2372
1764313255590,-9.1101,-2.2187,8.5292,-0.2888,-2.1896,0.2657
1764313255600,-8.0847,-1.2981,7.1833,-0.2888,-2.1896,0.2657
1764313255610,-8.0847,-1.2981,7.1833,0.856,-4.7157,0.1489
1764313255620,-6.0909,-0.8937,7.3591,0.856,-4.7157,0.1489
1764313255630,-6.0909,-0.8937,7.3591,2.0592,-7.2235,0.0234
1764313255640,-3.0245,-0.2716,8.01,2.0592,-7.2235,0.0234
1764313255650,-3.0245,-0.2716,8.01,2.9874,-9.2085,-0.2315
1764313255660,-0.0562,0.4199,10.919,2.9874,-9.2085,-0.2315
1764313255670,-0.0562,0.4199,10.919,2.9874,-9.2085,-0.2315
1764313255680,2.0758,0.9589,13.0349,3.7273,-9.7992,-0.5125
1764313255690,2.0758,0.9589,13.0349,3.7273,-9.7992,-0.5125
1764313255700,2.6973,1.3992,13.1856,4.3187,-9.2983,-0.7019
1764313255710,2.6973,1.3992,13.1856,4.3187,-9.2983,-0.7019
1764313255720,2.6973,1.3992,13.1856,4.6998,-8.1031,-0.6025
1764313255730,2.9707,2.1087,11.8618,4.6998,-8.1031,-0.6025
1764313255740,2.9707,2.1087,11.8618,4.3834,-5.8481,-0.1863
1764313255750,3.9751,3.2315,9.8249,4.3834,-5.8481,-0.1863
1764313255760,3.9751,3.2315,9.8249,2.8315,-2.3488,0.3051
1764313255770,5.0124,3.9386,6.1274,2.8315,-2.3488,0.3051
1764313255780,5.0124,3.9386,6.1274,0.8179,0.2298,0.5258
1764313255790,5.0644,4.4327,5.2439,0.8179,0.2298,0.5258
1764313255800,5.0644,4.4327,5.2439,0.0316,0.5289,0.4629
1764313255810,4.6564,4.3657,6.588,0.0316,0.5289,0.4629
1764313255820,4.6564,4.3657,6.588,0.0316,0.5289,0.4629
1764313255830,4.4189,4.0277,7.8162,0.4914,-0.3552,0.2934
1764313255840,4.4189,4.0277,7.8162,0.4914,-0.3552,0.2934
1764313255850,4.4189,4.0277,7.8162,1.088,-0.7332,0.2167
1764313255860,4.1904,3.4038,7.7683,1.088,-0.7332,0.2167
1764313255870,4.1904,3.4038,7.7683,1.0214,-0.1171,0.4116
1764313255880,4.4668,3.259,7.2263,1.0214,-0.1171,0.4116
1764313255890,4.4668,3.259,7.2263,0.5281,0.8636,0.7202
1764313255900,4.9113,3.6838,6.2345,0.5281,0.8636,0.7202
1764313255910,4.9113,3.6838,6.2345,0.0724,1.3376,0.8512
1764313255920,5.333,4.0834,5.7583,0.0724,1.3376,0.8512
1764313255930,5.333,4.0834,5.7583,-0.2008,1.3045,0.8028
1764313255940,5.4688,4.2401,6.4451,-0.2008,1.3045,0.8028
1764313255950,5.4688,4.2401,6.4451,-0.3036,1.1664,0.6852
1764313255960,5.3569,3.9655,7.544,-0.3036,1.1664,0.6852
1764313255970,5.3569,3.9655,7.544,-0.3036,1.1664,0.6852
1764313255980,5.3569,3.9655,7.544,-0.1353,0.9588,0.6396
1764313255990,5.1571,3.7651,7.9334,-0.1353,0.9588,0.6396
1764313256000,5.1571,3.7651,7.9334,0.0667,0.7561,0.6296
1764313256010,5.1667,3.6209,7.876,0.0667,0.7561,0.6296
1764313256020,5.1667,3.6209,7.876,0.1457,0.6148,0.6457
1764313256030,5.6471,3.7741,8.1021,0.1457,0.6148,0.6457
1764313256040,5.6471,3.7741,8.1021,0.0854,0.7271,0.6064
1764313256050,5.4191,3.8207,7.7892,0.0854,0.7271,0.6064
1764313256060,5.4191,3.8207,7.7892,0.0108,0.7028,0.571
1764313256070,5.0824,3.9117,7.7874,0.0108,0.7028,0.571
1764313256080,5.0824,3.9117,7.7874,0.0489,0.5134,0.5399
1764313256090,4.5864,3.2626,8.1105,0.0489,0.5134,0.5399
1764313256100,4.5864,3.2626,8.1105,0.0489,0.5134,0.5399
1764313256110,4.5864,3.2626,8.1105,0.2419,0.4453,0.5837
1764313256120,4.3466,3.6694,7.7133,0.2419,0.4453,0.5837
1764313256130,4.3466,3.6694,7.7133,0.3079,0.2007,0.6823
1764313256140,4.8395,3.7579,7.7354,0.3079,0.2007,0.6823
1764313256150,4.8395,3.7579,7.7354,0.3172,0.091,0.6388
1764313256160,5.2451,3.7472,7.7306,0.3172,0.091,0.6388
1764313256170,5.2451,3.7472,7.7306,0.2963,0.1578,0.4884
1764313256180,5.2211,3.7531,7.6092,0.2963,0.1578,0.4884
1764313256190,5.2211,3.7531,7.6092,0.2385,0.2049,0.363
1764313256200,4.9017,3.6532,7.6331,0.2385,0.2049,0.363
1764313256210,4.9017,3.6532,7.6331,0.2153,0.2237,0.299
1764313256220,4.4877,3.533,7.4524,0.2153,0.2237,0.299
1764313256230,4.4877,3.533,7.4524,0.2153,0.2237,0.299
1764313256240,4.3615,3.4475,7.4782,0.1686,0.2337,0.3144
1764313256250,4.3615,3.4475,7.4782,0.1686,0.2337,0.3144
1764313256260,4.3615,3.4475,7.4782,0.0988,0.2489,0.3535
1764313256270,4.459,3.393,7.6187,0.0988,0.2489,0.3535
1764313256280,4.459,3.393,7.6187,0.0728,0.2477,0.3645
1764313256290,4.73,3.5049,7.9932,0.0728,0.2477,0.3645
1764313256300,4.73,3.5049,7.9932,0.1347,0.106,0.3137
1764313256310,5.0889,3.4666,8.6925,0.1347,0.106,0.3137
1764313256320,5.0889,3.4666,8.6925,0.3221,0.0947,0.2298
1764313256330,4.8927,3.4283,8.4383,0.3221,0.0947,0.2298
1764313256340,4.8927,3.4283,8.4383,0.3856,0.1468,0.221
1764313256350,4.9789,3.7244,8.2917,0.3856,0.1468,0.221
1764313256360,4.9789,3.7244,8.2917,0.3856,0.1468,0.221
1764313256370,4.9789,3.7244,8.2917,0.3262,0.3222,0.2262
1764313256380,4.8347,3.6867,8.0985,0.3262,0.3222,0.2262
1764313256390,4.8347,3.6867,8.0985,0.1515,0.5867,0.2856
1764313256400,4.9406,3.679,8.3689,0.1515,0.5867,0.2856
1764313256410,4.9406,3.679,8.3689,0.0965,0.6733,0.2921
1764313256420,4.9131,3.6849,8.5807,0.0965,0.6733,0.2921
1764313256430,4.9131,3.6849,8.5807,0.2728,0.5873,0.2308
1764313256440,4.8538,3.8058,8.2678,0.2728,0.5873,0.2308
1764313256450,4.8538,3.8058,8.2678,0.4287,0.3644,0.1397
1764313256460,4.9561,3.9864,8.2439,0.4287,0.3644,0.1397
1764313256470,4.9561,3.9864,8.2439,0.5174,0.222,0.0116
1764313256480,4.7252,3.7998,8.3713,0.5174,0.222,0.0116
1764313256490,4.7252,3.7998,8.3713,0.6212,0.1701,-0.0568
1764313256500,4.2365,3.9254,7.9573,0.6212,0.1701,-0.0568
1764313256510,4.2365,3.9254,7.9573,0.6212,0.1701,-0.0568
1764313256520,4.2365,3.9254,7.9573,0.6926,0.0307,-0.0545
1764313256530,4.1551,4.0977,7.5948,0.6926,0.0307,-0.0545
1764313256540,4.1551,4.0977,7.5948,0.7069,-0.1443,-0.0585
1764313256550,4.5846,4.4734,7.678,0.7069,-0.1443,-0.0585
1764313256560,4.5846,4.4734,7.678,0.6927,-0.2605,-0.162
1764313256570,4.5691,4.4758,7.7689,0.6927,-0.2605,-0.162
1764313256580,4.5691,4.4758,7.7689,0.7756,-0.4803,-0.2401
1764313256590,4.3896,4.5685,7.5996,0.7756,-0.4803,-0.2401
1764313256600,4.3896,4.5685,7.5996,1.0385,-0.8708,-0.317
1764313256610,3.8267,4.4806,7.529,1.0385,-0.8708,-0.317
1764313256620,3.8267,4.4806,7.529,1.0385,-0.8708,-0.317
1764313256630,4.0469,4.6564,6.3565,1.3152,-0.9592,-0.2425
1764313256640,4.0469,4.6564,6.3565,1.3152,-0.9592,-0.2425
1764313256650,4.0469,4.6564,6.3565,1.0754,-0.706,-0.1167
1764313256660,4.1922,4.8209,6.055,1.0754,-0.706,-0.1167
1764313256670,4.1922,4.8209,6.055,0.3778,0.5834,0.0644
1764313256680,5.3982,5.4012,7.523,0.3778,0.5834,0.0644
1764313256690,5.3982,5.4012,7.523,-1.1244,4.3155,0.2538
1764313256700,8.3737,7.1276,8.6991,-1.1244,4.3155,0.2538
1764313256710,8.3737,7.1276,8.6991,-3.9589,11.2254,0.1843
1764313256720,12.3482,9.0706,4.3358,-3.9589,11.2254,0.1843
1764313256730,12.3482,9.0706,4.3358,-7.6563,18.1893,-0.4959
1764313256740,12.4678,9.6748,-0.0802,-7.6563,18.1893,-0.4959
1764313256750,12.4678,9.6748,-0.0802,-7.6563,18.1893,-0.4959
1764313256760,6.0072,6.9841,-5.464,-8.9579,20.3164,-1.819
1764313256770,6.0072,6.9841,-5.464,-8.9579,20.3164,-1.819
1764313256780,-6.0921,0.4576,-11.1344,-5.9793,13.9499,-3.5238
1764313256790,-6.0921,0.4576,-11.1344,-5.9793,13.9499,-3.5238
1764313256800,-6.0921,0.4576,-11.1344,-1.0751,1.4268,-5.0978
1764313256810,-14.7123,-9.1753,-2.5759,-1.0751,1.4268,-5.0978
1764313256820,-14.7123,-9.1753,-2.5759,1.2181,-6.1232,-3.9541
1764313256830,-14.2881,-12.4092,13.0026,1.2181,-6.1232,-3.9541
1764313256840,-14.2881,-12.4092,13.0026,0.8951,-3.8597,-1.5275
1764313256850,-10.1186,-8.7308,13.218,0.8951,-3.8597,-1.5275
1764313256860,-10.1186,-8.7308,13.218,-0.4146,-0.438,-0.515
1764313256870,-8.522,-5.6345,10.3579,-0.4146,-0.438,-0.515
1764313256880,-8.522,-5.6345,10.3579,-0.15,-0.9319,-0.531
1764313256890,-8.1625,-3.679,11.1619,-0.15,-0.9319,-0.531
1764313256900,-8.1625,-3.679,11.1619,-0.15,-0.9319,-0.531
1764313256910,-6.9452,-2.6638,11.0261,1.6695,-3.395,-0.8282
1764313256920,-6.9452,-2.6638,11.0261,1.6695,-3.395,-0.8282
1764313256930,-6.9452,-2.6638,11.0261,3.3271,-5.7449,-1.0537
1764313256940,-5.7171,-2.0112,10.5637,3.3271,-5.7449,-1.0537
1764313256950,-5.7171,-2.0112,10.5637,4.348,-7.4832,-1.0863
1764313256960,-3.5067,-1.5811,11.4245,4.348,-7.4832,-1.0863
1764313256970,-3.5067,-1.5811,11.4245,4.9173,-8.1744,-1.0449
1764313256980,-0.6042,-0.4594,12.2046,4.9173,-8.1744,-1.0449
1764313256990,-0.6042,-0.4594,12.2046,5.0905,-7.9189,-1.1866
1764313257000,0.8806,0.5168,12.6598,5.0905,-7.9189,-1.1866
1764313257010,0.8806,0.5168,12.6598,5.2831,-7.2201,-1.2591
1764313257020,1.0211,1.1886,11.6136,5.2831,-7.2201,-1.2591
1764313257030,1.0211,1.1886,11.6136,4.9385,-5.5688,-0.9843
1764313257040,1.0875,1.8652,8.6207,4.9385,-5.5688,-0.9843
1764313257050,1.0875,1.8652,8.6207,4.9385,-5.5688,-0.9843
1764313257060,1.0875,1.8652,8.6207,3.5707,-3.2587,-0.4331
1764313257070,1.9095,2.9396,5.6375,3.5707,-3.2587,-0.4331
1764313257080,1.9095,2.9396,5.6375,1.8248,-1.324,-0.0214
1764313257090,3.0933,4.1719,4.8419,1.8248,-1.324,-0.0214
1764313257100,3.0933,4.1719,4.8419,0.5889,-0.2483,-0.0165
1764313257110,3.7842,4.6744,4.4058,0.5889,-0.2483,-0.0165
1764313257120,3.7842,4.6744,4.4058,0.1584,-0.5666,-0.3285
1764313257130,3.3488,4.5817,5.7302,0.1584,-0.5666,-0.3285
1764313257140,3.3488,4.5817,5.7302,0.4678,-1.3401,-0.5322
1764313257150,2.9946,3.9416,6.8847,0.4678,-1.3401,-0.5322
1764313257160,2.9946,3.9416,6.8847,0.6836,-1.4296,-0.4071
1764313257170,3.3805,4.0612,6.5294,0.6836,-1.4296,-0.4071
1764313257180,3.3805,4.0612,6.5294,0.6836,-1.4296,-0.4071
1764313257190,3.3805,4.0612,6.5294,0.2935,-0.8847,-0.1604
1764313257200,4.2335,4.4853,6.3996,0.2935,-0.8847,-0.1604
1764313257210,4.2335,4.4853,6.3996,-0.257,-0.2642,-0.0512
1764313257220,4.8479,4.8347,6.8877,-0.257,-0.2642,-0.0512
1764313257230,4.8479,4.8347,6.8877,-0.4143,-0.1494,-0.0768
1764313257240,5.2451,5.1841,7.4483,-0.4143,-0.1494,-0.0768
1764313257250,5.2451,5.1841,7.4483,-0.3531,-0.1232,-0.1917
1764313257260,5.2911,5.1942,7.5613,-0.3531,-0.1232,-0.1917
1764313257270,5.2911,5.1942,7.5613,-0.4276,-0.0079,-0.2518
1764313257280,5.0524,4.9178,7.8784,-0.4276,-0.0079,-0.2518
1764313257290,5.0524,4.9178,7.8784,-0.515,0.2217,-0.2263
1764313257300,5.0333,4.9328,8.0495,-0.515,0.2217,-0.2263
1764313257310,5.0333,4.9328,8.0495,-0.515,0.2217,-0.2263
1764313257320,5.0333,4.9328,8.0495,-0.5576,0.4727,-0.2511
1764313257330,4.867,4.7043,8.2044,-0.5576,0.4727,-0.2511
1764313257340,4.867,4.7043,8.2044,-0.5767,0.6973,-0.2657
1764313257350,4.5954,4.5308,7.8544,-0.5767,0.6973,-0.2657
1764313257360,4.5954,4.5308,7.8544,-0.6176,0.7515,-0.2923
1764313257370,4.1049,4.3388,7.8568,-0.6176,0.7515,-0.2923
1764313257380,4.1049,4.3388,7.8568,-0.556,0.5768,-0.3398
1764313257390,3.6646,4.0947,8.053,-0.556,0.5768,-0.3398
1764313257400,3.6646,4.0947,8.053,-0.3019,0.1949,-0.3868
1764313257410,3.5306,4.0666,8.1577,-0.3019,0.1949,-0.3868
1764313257420,3.5306,4.0666,8.1577,-0.0376,-0.1174,-0.462
1764313257430,3.2943,4.0738,8.2953,-0.0376,-0.1174,-0.462
1764313257440,3.2943,4.0738,8.2953,-0.0376,-0.1174,-0.462
1764313257450,2.4233,3.3769,8.3091,0.0118,-0.0321,-0.427
1764313257460,2.4233,3.3769,8.3091,0.0118,-0.0321,-0.427
1764313257470,2.4233,3.3769,8.3091,-0.0757,0.2364,-0.1403
1764313257480,2.4347,3.8925,7.8802,-0.0757,0.2364,-0.1403
1764313257490,2.4347,3.8925,7.8802,-0.2656,0.3522,0.1793
1764313257500,3.3709,4.3657,7.5661,-0.2656,0.3522,0.1793
1764313257510,3.3709,4.3657,7.5661,-0.43,0.2172,0.1475
1764313257520,3.9709,4.5356,8.0752,-0.43,0.2172,0.1475
1764313257530,3.9709,4.5356,8.0752,-0.3421,0.037,-0.0845
1764313257540,3.9613,4.483,8.4694,-0.3421,0.037,-0.0845
1764313257550,3.9613,4.483,8.4694,-0.0896,-0.2049,-0.3257
1764313257560,3.4684,4.1862,8.5693,-0.0896,-0.2049,-0.3257
1764313257570,3.4684,4.1862,8.5693,-0.0896,-0.2049,-0.3257
1764313257580,3.4684,4.1862,8.5693,0.0365,-0.2398,-0.394
1764313257590,3.1047,3.9817,8.464,0.0365,-0.2398,-0.394
1764313257600,3.1047,3.9817,8.464,0.0018,-0.1518,-0.3073
1764313257610,3.1807,4.1157,8.3569,0.0018,-0.1518,-0.3073
1764313257620,3.1807,4.1157,8.3569,-0.0796,-0.0287,-0.2279
1764313257630,3.4038,4.2748,8.2283,-0.0796,-0.0287,-0.2279
1764313257640,3.4038,4.2748,8.2283,-0.1002,-0.0319,-0.2373
1764313257650,3.4505,4.2897,8.4018,-0.1002,-0.0319,-0.2373
1764313257660,3.4505,4.2897,8.4018,-0.0319,-0.1269,-0.2923
1764313257670,3.21,4.0995,8.2445,-0.0319,-0.1269,-0.2923
1764313257680,3.21,4.0995,8.2445,0.0284,-0.1802,-0.2914
1764313257690,3.0849,4.0726,7.9807,0.0284,-0.1802,-0.2914
1764313257700,3.0849,4.0726,7.9807,-0.0192,-0.1668,-0.2561
1764313257710,3.1023,4.0774,7.9364,-0.0192,-0.1668,-0.2561
1764313257720,3.1023,4.0774,7.9364,-0.0192,-0.1668,-0.2561
1764313257730,3.1023,4.0774,7.9364,-0.1338,-0.0165,-0.2503
1764313257740,3.2243,4.0325,8.3354,-0.1338,-0.0165,-0.2503
1764313257750,3.2243,4.0325,8.3354,-0.2653,0.2037,-0.265
1764313257760,3.4104,4.0534,9.4056,-0.2653,0.2037,-0.265
1764313257770,3.4104,4.0534,9.4056,-0.277,0.58,-0.2911
1764313257780,3.5701,4.0469,10.3047,-0.277,0.58,-0.2911
1764313257790,3.5701,4.0469,10.3047,-0.2045,1.1099,-0.3089
1764313257800,2.8588,3.7567,9.5731,-0.2045,1.1099,-0.3089
1764313257810,2.8588,3.7567,9.5731,-0.1162,1.1742,-0.1836
1764313257820,2.15,3.9272,8.6447,-0.1162,1.1742,-0.1836
1764313257830,2.15,3.9272,8.6447,0.0451,0.6869,-0.0687
1764313257840,1.9029,4.0164,8.6351,0.0451,0.6869,-0.0687
1764313257850,1.9029,4.0164,8.6351,0.0451,0.6869,-0.0687
1764313257860,2.0542,4.2054,8.8283,0.3262,0.0693,-0.0031
1764313257870,2.0542,4.2054,8.8283,0.3262,0.0693,-0.0031
1764313257880,2.0542,4.2054,8.8283,0.6364,-0.3965,0.0153
1764313257890,2.5412,4.3944,8.8786,0.6364,-0.3965,0.0153
1764313257900,2.5412,4.3944,8.8786,0.8648,-0.633,0.0021
1764313257910,2.6189,4.4375,8.6602,0.8648,-0.633,0.0021
1764313257920,2.6189,4.4375,8.6602,0.9785,-0.7185,0.0307
1764313257930,2.4951,4.4877,8.1799,0.9785,-0.7185,0.0307
1764313257940,2.4951,4.4877,8.1799,1.0452,-0.8961,0.0945
1764313257950,2.662,4.5625,7.9998,1.0452,-0.8961,0.0945
1764313257960,2.662,4.5625,7.9998,1.2118,-1.1385,0.1373
1764313257970,2.9737,4.5571,7.751,1.2118,-1.1385,0.1373
1764313257980,2.9737,4.5571,7.751,1.2118,-1.1385,0.1373
1764313257990,2.9737,4.5571,7.751,1.4058,-1.1771,0.1886
1764313258000,3.2189,4.8209,6.9709,1.4058,-1.1771,0.1886
1764313258010,3.2189,4.8209,6.9709,1.3434,-0.6513,0.1993
1764313258020,2.4915,4.9035,6.4445,1.3434,-0.6513,0.1993
1764313258030,2.4915,4.9035,6.4445,0.7862,1.5424,0.4989
1764313258040,4.9352,5.3982,5.272,0.7862,1.5424,0.4989
1764313258050,4.9352,5.3982,5.272,-1.2923,6.0208,0.5727
1764313258060,8.0847,7.8879,1.5009,-1.2923,6.0208,0.5727
1764313258070,8.0847,7.8879,1.5009,-4.957,10.7156,0.0053
1764313258080,9.6814,8.9683,2.2283,-4.957,10.7156,0.0053
1764313258090,9.6814,8.9683,2.2283,-7.7015,14.9465,-1.0204
1764313258100,10.3131,9.1896,3.4493,-7.7015,14.9465,-1.0204
1764313258110,10.3131,9.1896,3.4493,-7.9832,16.9762,-2.7556
1764313258120,5.0028,5.4269,-0.798,-7.9832,16.9762,-2.7556
1764313258130,5.0028,5.4269,-0.798,-7.9832,16.9762,-2.7556
1764313258140,5.0028,5.4269,-0.798,-5.5105,13.7529,-4.4315
1764313258150,-7.5087,-1.9352,-9.0891,-5.5105,13.7529,-4.4315
1764313258160,-7.5087,-1.9352,-9.0891,-2.06,4.1377,-5.1279
1764313258170,-17.7404,-8.9145,-5.6249,-2.06,4.1377,-5.1279
1764313258180,-17.7404,-8.9145,-5.6249,0.4116,-4.7084,-3.8976
1764313258190,-17.1117,-11.8122,7.4925,0.4116,-4.7084,-3.8976
1764313258200,-17.1117,-11.8122,7.4925,0.8621,-5.847,-1.6313
1764313258210,-12.3248,-9.1645,12.8554,0.8621,-5.847,-1.6313
1764313258220,-12.3248,-9.1645,12.8554,0.2476,-3.3762,-0.3945
1764313258230,-9.5916,-6.073,12.2818,0.2476,-3.3762,-0.3945
1764313258240,-9.5916,-6.073,12.2818,-0.0183,-2.0304,-0.1119
1764313258250,-8.5555,-4.0612,10.6463,-0.0183,-2.0304,-0.1119
1764313258260,-8.5555,-4.0612,10.6463,-0.0183,-2.0304,-0.1119
1764313258270,-7.6008,-2.723,10.7904,0.7683,-3.0968,-0.1652
1764313258280,-7.6008,-2.723,10.7904,0.7683,-3.0968,-0.1652
1764313258290,-7.6008,-2.723,10.7904,2.2718,-5.1446,-0.3569
1764313258300,-6.2853,-2.4676,11.0818,2.2718,-5.1446,-0.3569
1764313258310,-6.2853,-2.4676,11.0818,3.9437,-7.3644,-0.5524
1764313258320,-4.8538,-2.4329,12.0467,3.9437,-7.3644,-0.5524
1764313258330,-4.8538,-2.4329,12.0467,5.554,-8.966,-0.5298
1764313258340,-2.5394,-1.6116,12.5097,5.554,-8.966,-0.5298
1764313258350,-2.5394,-1.6116,12.5097,6.3406,-8.8068,-0.3483
1764313258360,-0.5456,-0.3338,11.54,6.3406,-8.8068,-0.3483
1764313258370,-0.5456,-0.3338,11.54,5.8238,-6.7375,0.0531
1764313258380,0.7035,1.0319,9.5222,5.8238,-6.7375,0.0531
1764313258390,0.7035,1.0319,9.5222,5.8238,-6.7375,0.0531
1764313258400,2.3079,1.9268,7.4142,4.1388,-3.5905,0.6559
1764313258410,2.3079,1.9268,7.4142,4.1388,-3.5905,0.6559
1764313258420,2.3079,1.9268,7.4142,2.1533,-0.6364,1.046
1764313258430,3.734,3.53,5.7081,2.1533,-0.6364,1.046
1764313258440,3.734,3.53,5.7081,0.6854,0.9577,0.9922
1764313258450,4.3041,4.5595,4.7797,0.6854,0.9577,0.9922
1764313258460,4.3041,4.5595,4.7797,0.0638,0.7028,0.5133
1764313258470,3.259,4.1713,6.5677,0.0638,0.7028,0.5133
1764313258480,3.259,4.1713,6.5677,0.584,-0.4676,0.1998
1764313258490,2.4503,3.4217,7.995,0.584,-0.4676,0.1998
1764313258500,2.4503,3.4217,7.995,1.3068,-1.1921,0.1801
1764313258510,2.3701,3.2477,7.7958,1.3068,-1.1921,0.1801
1764313258520,2.3701,3.2477,7.7958,1.3068,-1.1921,0.1801
1764313258530,2.3701,3.2477,7.7958,1.3508,-1.0302,0.4041
1764313258540,3.0598,3.4247,7.075,1.3508,-1.0302,0.4041
1764313258550,3.0598,3.4247,7.075,0.8172,-0.4111,0.6144
1764313258560,3.7268,3.8459,7.1958,0.8172,-0.4111,0.6144
1764313258570,3.7268,3.8459,7.1958,0.434,0.0027,0.7026
1764313258580,4.1031,4.066,7.2915,0.434,0.0027,0.7026
1764313258590,4.1031,4.066,7.2915,0.4172,-0.0767,0.651
1764313258600,4.4333,4.6355,7.2072,0.4172,-0.0767,0.651
1764313258610,4.4333,4.6355,7.2072,0.6348,-0.4665,0.4861
1764313258620,4.593,4.6528,7.392,0.6348,-0.4665,0.4861
1764313258630,4.593,4.6528,7.392,0.6384,-0.3725,0.4091
1764313258640,4.4094,4.282,7.3711,0.6384,-0.3725,0.4091
1764313258650,4.4094,4.282,7.3711,0.3457,0.0959,0.5295
1764313258660,4.5715,4.282,7.477,0.3457,0.0959,0.5295
1764313258670,4.5715,4.282,7.477,0.3457,0.0959,0.5295
1764313258680,4.5715,4.282,7.477,0.0044,0.6747,0.6321
1764313258690,4.7569,4.1791,7.416,0.0044,0.6747,0.6321
1764313258700,4.7569,4.1791,7.416,-0.2046,0.9067,0.7109
1764313258710,5.0267,4.3848,7.7515,-0.2046,0.9067,0.7109
1764313258720,5.0267,4.3848,7.7515,-0.2187,0.8903,0.6457
1764313258730,4.9208,4.4333,7.9011,-0.2187,0.8903,0.6457
1764313258740,4.9208,4.4333,7.9011,-0.0519,0.655,0.5466
1764313258750,4.6361,4.4279,7.8168,-0.0519,0.655,0.5466
1764313258760,4.6361,4.4279,7.8168,0.1196,0.3418,0.4591
1764313258770,4.4686,4.2431,8.0782,0.1196,0.3418,0.4591
1764313258780,4.4686,4.2431,8.0782,0.1196,0.3418,0.4591
1764313258790,4.6355,4.349,8.1751,0.272,0.1616,0.4107
1764313258800,4.6355,4.349,8.1751,0.272,0.1616,0.4107
1764313258810,4.5236,4.4172,8.1416,0.2877,0.2169,0.3684
1764313258820,4.5236,4.4172,8.1416,0.2877,0.2169,0.3684
1764313258830,4.5236,4.4172,8.1416,0.1147,0.5528,0.3816
1764313258840,3.9015,3.8345,8.1577,0.1147,0.5528,0.3816
1764313258850,3.9015,3.8345,8.1577,-0.0148,0.7943,0.5605
1764313258860,4.2275,4.1366,7.9184,-0.0148,0.7943,0.5605
1764313258870,4.2275,4.1366,7.9184,-0.0867,0.7695,0.6139
1764313258880,4.6337,4.2526,7.6714,-0.0867,0.7695,0.6139
1764313258890,4.6337,4.2526,7.6714,0.0027,0.3858,0.4395
1764313258900,4.3609,4.0409,8.1482,0.0027,0.3858,0.4395
1764313258910,4.3609,4.0409,8.1482,0.2883,0.04,0.288
1764313258920,4.1839,3.929,8.1422,0.2883,0.04,0.288
1764313258930,4.1839,3.929,8.1422,0.2883,0.04,0.288
1764313258940,4.1839,3.929,8.1422,0.4433,-0.0681,0.2274
1764313258950,4.1623,3.9422,7.8132,0.4433,-0.0681,0.2274
1764313258960,4.1623,3.9422,7.8132,0.3468,0.0895,0.225
1764313258970,4.1264,4.0594,7.5003,0.3468,0.0895,0.225
1764313258980,4.1264,4.0594,7.5003,0.1408,0.2816,0.2204
1764313258990,4.2658,4.1839,7.6887,0.1408,0.2816,0.2204
1764313259000,4.2658,4.1839,7.6887,-0.0165,0.4365,0.1959
1764313259010,4.2437,4.0744,7.9286,-0.0165,0.4365,0.1959
1764313259020,4.2437,4.0744,7.9286,-0.038,0.4795,0.1752
1764313259030,4.0199,4.0762,8.0417,-0.038,0.4795,0.1752
1764313259040,4.0199,4.0762,8.0417,-0.038,0.4795,0.1752
1764313259050,4.1186,4.0451,8.1278,-0.0128,0.4762,0.1817
1764313259060,4.1186,4.0451,8.1278,-0.0128,0.4762,0.1817
1764313259070,4.1043,4.1695,7.9747,-0.011,0.5354,0.1944
1764313259080,4.1043,4.1695,7.9747,-0.011,0.5354,0.1944
1764313259090,4.1043,4.1695,7.9747,0.0032,0.4456,0.1304
1764313259100,3.9685,4.2413,7.748,0.0032,0.4456,0.1304
1764313259110,3.9685,4.2413,7.748,0.0446,0.2019,0.0531
1764313259120,3.8447,4.2179,7.5565,0.0446,0.2019,0.0531
1764313259130,3.8447,4.2179,7.5565,0.0421,-0.0006,-0.0063
1764313259140,3.7041,4.1701,7.6845,0.0421,-0.0006,-0.0063
1764313259150,3.7041,4.1701,7.6845,-0.0061,-0.0751,-0.0125
1764313259160,3.8333,4.1121,8.1607,-0.0061,-0.0751,-0.0125
1764313259170,3.8333,4.1121,8.1607,-0.0257,-0.0409,-0.0292
1764313259180,4.2323,4.1874,8.4437,-0.0257,-0.0409,-0.0292
1764313259190,4.2323,4.1874,8.4437,-0.0257,-0.0409,-0.0292
1764313259200,4.017,4.1665,8.2397,-0.0009,0.0328,-0.1289
1764313259210,4.017,4.1665,8.2397,-0.0009,0.0328,-0.1289
1764313259220,4.017,4.1665,8.2397,0.0643,0.0034,-0.226
1764313259230,3.6335,4.1713,7.9155,0.0643,0.0034,-0.226
1764313259240,3.6335,4.1713,7.9155,0.0925,-0.1316,-0.2659
1764313259250,3.4283,4.0199,8.2469,0.0925,-0.1316,-0.2659
1764313259260,3.4283,4.0199,8.2469,0.1422,-0.1431,-0.2472
1764313259270,3.417,3.9547,8.4706,0.1422,-0.1431,-0.2472
1764313259280,3.417,3.9547,8.4706,0.1932,-0.0417,-0.2288
1764313259290,3.2841,3.9799,7.9537,0.1932,-0.0417,-0.2288
1764313259300,3.2841,3.9799,7.9537,0.1382,-0.0593,-0.1978
1764313259310,3.2495,4.1336,7.7527,0.1382,-0.0593,-0.1978
1764313259320,3.2495,4.1336,7.7527,0.0538,-0.1147,-0.1843
1764313259330,3.5426,4.328,7.7928,0.0538,-0.1147,-0.1843
1764313259340,3.5426,4.328,7.7928,0.0538,-0.1147,-0.1843
1764313259350,3.5426,4.328,7.7928,0.0192,-0.2286,-0.2534
1764313259360,3.8142,4.2449,8.388,0.0192,-0.2286,-0.2534
1764313259370,3.8142,4.2449,8.388,0.1804,-0.3106,-0.326
1764313259380,3.7155,4.1001,8.3689,0.1804,-0.3106,-0.326
1764313259390,3.7155,4.1001,8.3689,0.3862,-0.5206,-0.3775
1764313259400,2.8989,4.0594,7.5212,0.3862,-0.5206,-0.3775
1764313259410,2.8989,4.0594,7.5212,0.7026,-1.4525,-0.3419
1764313259420,2.6812,4.0355,7.5517,0.7026,-1.4525,-0.3419
1764313259430,2.6812,4.0355,7.5517,1.4986,-3.2142,-0.3057
1764313259440,2.948,3.5354,9.2716,1.4986,-3.2142,-0.3057
1764313259450,2.948,3.5354,9.2716,2.8068,-4.4017,-0.2552
1764313259460,2.9988,3.8112,9.0736,2.8068,-4.4017,-0.2552
1764313259470,2.9988,3.8112,9.0736,2.8068,-4.4017,-0.2552
1764313259480,3.9111,4.5416,6.5408,3.6641,-4.1659,0.011
1764313259490,3.9111,4.5416,6.5408,3.6641,-4.1659,0.011
1764313259500,3.9111,4.5416,6.5408,2.614,-1.4113,0.6081
1764313259510,6.8399,6.2249,4.9292,2.614,-1.4113,0.6081
1764313259520,6.8399,6.2249,4.9292,-1.1077,4.9417,1.0605
1764313259530,11.2176,9.0114,2.4646,-1.1077,4.9417,1.0605
1764313259540,11.2176,9.0114,2.4646,-6.1653,12.2174,0.7088
1764313259550,13.267,10.0391,5.2708,-6.1653,12.2174,0.7088
1764313259560,13.267,10.0391,5.2708,-9.4162,18.6146,-0.2068
1764313259570,13.4536,9.6096,5.8349,-9.4162,18.6146,-0.2068
1764313259580,13.4536,9.6096,5.8349,-9.4835,21.4892,-1.5687
1764313259590,6.8118,4.7874,2.0279,-9.4835,21.4892,-1.5687
1764313259600,6.8118,4.7874,2.0279,-9.4835,21.4892,-1.5687
1764313259610,-6.0072,-0.3523,-6.9188,-6.1873,17.7499,-2.4806
1764313259620,-6.0072,-0.3523,-6.9188,-6.1873,17.7499,-2.4806
1764313259630,-6.0072,-0.3523,-6.9188,-1.2628,6.5511,-2.9296
1764313259640,-14.4305,-2.7535,-9.0915,-1.2628,6.5511,-2.9296
1764313259650,-14.4305,-2.7535,-9.0915,1.782,-4.1682,-2.8853
1764313259660,-13.6678,-7.2826,2.7697,1.782,-4.1682,-2.8853
1764313259670,-13.6678,-7.2826,2.7697,1.3827,-5.8791,-1.4102
1764313259680,-8.4945,-5.7458,11.2385,1.3827,-5.8791,-1.4102
1764313259690,-8.4945,-5.7458,11.2385,-0.1477,-2.4236,-0.6833
1764313259700,-6.9517,-3.5862,12.2782,-0.1477,-2.4236,-0.6833
1764313259710,-6.9517,-3.5862,12.2782,-0.6829,-0.1235,-0.6015
1764313259720,-7.4991,-2.6638,9.9093,-0.6829,-0.1235,-0.6015
1764313259730,-7.4991,-2.6638,9.9093,-0.0053,-0.8199,-0.661
1764313259740,-7.0971,-1.5709,8.9743,-0.0053,-0.8199,-0.661
1764313259750,-7.0971,-1.5709,8.9743,-0.0053,-0.8199,-0.661
1764313259760,-7.0971,-1.5709,8.9743,1.0165,-2.405,-0.856
1764313259770,-6.6156,-1.7288,9.2967,1.0165,-2.405,-0.856
1764313259780,-6.6156,-1.7288,9.2967,1.4746,-3.065,-0.8636
1764313259790,-6.853,-2.4855,9.4887,1.4746,-3.065,-0.8636
1764313259800,-6.853,-2.4855,9.4887,1.3741,-2.8934,-0.5489
1764313259810,-6.0694,-2.6524,9.3063,1.3741,-2.8934,-0.5489
1764313259820,-6.0694,-2.6524,9.3063,1.2972,-3.0858,-0.2764
1764313259830,-4.4572,-1.9065,10.0433,1.2972,-3.0858,-0.2764
1764313259840,-4.4572,-1.9065,10.0433,2.0844,-4.4318,-0.38
1764313259850,-2.455,-0.9206,11.0225,2.0844,-4.4318,-0.38
1764313259860,-2.455,-0.9206,11.0225,3.6001,-6.4074,-0.7827
1764313259870,-0.6257,0.2405,11.4532,3.6001,-6.4074,-0.7827
1764313259880,-0.6257,0.2405,11.4532,3.6001,-6.4074,-0.7827
1764313259890,-0.6257,0.2405,11.4532,4.7302,-7.643,-1.2735
1764313259900,0.2584,0.917,10.4357,4.7302,-7.643,-1.2735
1764313259910,0.2584,0.917,10.4357,4.8895,-7.8873,-1.4739
1764313259920,0.2997,1.5888,10.7019,4.8895,-7.8873,-1.4739
1764313259930,0.2997,1.5888,10.7019,4.2476,-6.2916,-1.1116
1764313259940,0.6257,2.1308,9.8333,4.2476,-6.2916,-1.1116
1764313259950,0.6257,2.1308,9.8333,2.5927,-3.114,-0.401
1764313259960,2.6644,2.854,8.1021,2.5927,-3.114,-0.401
1764313259970,2.6644,2.854,8.1021,0.6605,-0.1008,0.0486
1764313259980,4.4028,4.4441,6.4702,0.6605,-0.1008,0.0486
1764313259990,4.4028,4.4441,6.4702,0.6605,-0.1008,0.0486
1764313260000,3.8297,4.5894,6.39,-0.5941,1.1884,-0.153
1764313260010,3.8297,4.5894,6.39,-0.5941,1.1884,-0.153
1764313260020,2.7075,3.8985,7.6032,-0.6785,0.6442,-0.5183
1764313260030,2.7075,3.8985,7.6032,-0.6785,0.6442,-0.5183
1764313260040,2.7075,3.8985,7.6032,-0.0464,-0.3586,-0.7062
1764313260050,2.0273,3.052,9.0891,-0.0464,-0.3586,-0.7062
1764313260060,2.0273,3.052,9.0891,0.4485,-0.6692,-0.6026
1764313260070,1.9543,2.7709,9.0802,0.4485,-0.6692,-0.6026
1764313260080,1.9543,2.7709,9.0802,0.4322,-0.223,-0.3531
1764313260090,2.0991,3.0897,8.0028,0.4322,-0.223,-0.3531
1764313260100,2.0991,3.0897,8.0028,0.0564,0.3406,-0.1465
1764313260110,2.5998,3.5115,6.8052,0.0564,0.3406,-0.1465
1764313260120,2.5998,3.5115,6.8052,-0.4195,0.4407,-0.1481
1764313260130,2.8792,3.7555,7.2389,-0.4195,0.4407,-0.1481
1764313260140,2.8792,3.7555,7.2389,-0.4195,0.4407,-0.1481
1764313260150,2.8792,3.7555,7.2389,-0.4525,-0.142,-0.347
1764313260160,2.814,3.4445,9.4307,-0.4525,-0.142,-0.347
1764313260170,2.814,3.4445,9.4307,-0.0396,-0.5206,-0.4934
1764313260180,2.8678,3.1693,10.733,-0.0396,-0.5206,-0.4934
1764313260190,2.8678,3.1693,10.733,0.1796,-0.1037,-0.4789
1764313260200,1.3926,2.4084,10.2682,0.1796,-0.1037,-0.4789
1764313260210,1.3926,2.4084,10.2682,0.1104,0.5345,-0.1303
1764313260220,0.0132,2.214,8.5406,0.1104,0.5345,-0.1303
1764313260230,0.0132,2.214,8.5406,-0.0334,0.1101,0.5107
1764313260240,1.2694,3.1603,9.1167,-0.0334,0.1101,0.5107
1764313260250,1.2694,3.1603,9.1167,0.2363,-0.6301,0.7335
1764313260260,3.4074,3.8638,10.0367,0.2363,-0.6301,0.7335
1764313260270,3.4074,3.8638,10.0367,0.5857,-0.6413,0.4672
1764313260280,4.2688,4.526,9.4965,0.5857,-0.6413,0.4672
1764313260290,4.2688,4.526,9.4965,0.5857,-0.6413,0.4672
1764313260300,4.2688,4.526,9.4965,0.646,-0.3948,0.0718
1764313260310,3.8776,4.5434,8.6219,0.646,-0.3948,0.0718
1764313260320,3.8776,4.5434,8.6219,0.4884,-0.073,-0.1567
1764313260330,3.6257,4.5021,7.9729,0.4884,-0.073,-0.1567
1764313260340,3.6257,4.5021,7.9729,0.2004,0.2205,-0.2382
1764313260350,3.2686,4.5912,7.8514,0.2004,0.2205,-0.2382
1764313260360,3.2686,4.5912,7.8514,-0.0231,0.4204,-0.3059
1764313260370,2.5831,4.2718,7.8532,-0.0231,0.4204,-0.3059
1764313260380,2.5831,4.2718,7.8532,-0.0932,0.3622,-0.276
1764313260390,2.1715,3.8572,8.1308,-0.0932,0.3622,-0.276
1764313260400,2.1715,3.8572,8.1308,-0.0237,0.2246,-0.1941
1764313260410,2.2684,3.8046,8.3671,-0.0237,0.2246,-0.1941
1764313260420,2.2684,3.8046,8.3671,-0.0237,0.2246,-0.1941
1764313260430,2.3928,3.7795,8.4957,0.0307,0.1781,-0.1413
1764313260440,2.3928,3.7795,8.4957,0.0307,0.1781,-0.1413
1764313260450,2.3928,3.7795,8.4957,0.0249,0.1709,-0.1359
1764313260460,2.2905,3.8237,8.5549,0.0249,0.1709,-0.1359
1764313260470,2.2905,3.8237,8.5549,0.0635,0.0706,-0.1469
1764313260480,1.9705,3.7986,8.4485,0.0635,0.0706,-0.1469
1764313260490,1.9705,3.7986,8.4485,0.1211,-0.0776,-0.1213
1764313260500,1.8078,3.9033,8.1099,0.1211,-0.0776,-0.1213
1764313260510,1.8078,3.9033,8.1099,0.1217,-0.2002,-0.0841
1764313260520,2.2666,4.0421,8.8887,0.1217,-0.2002,-0.0841
1764313260530,2.2666,4.0421,8.8887,0.0924,0.015,-0.0664
1764313260540,2.4915,3.8303,9.058,0.0924,0.015,-0.0664
1764313260550,2.4915,3.8303,9.058,0.0924,0.015,-0.0664
1764313260560,2.3055,4.0331,8.4353,-0.0166,0.4021,-0.0394
1764313260570,2.3055,4.0331,8.4353,-0.0166,0.4021,-0.0394
1764313260580,2.3055,4.0331,8.4353,-0.1811,0.4187,-0.0084
1764313260590,2.0166,4.057,8.735,-0.1811,0.4187,-0.0084
1764313260600,2.0166,4.057,8.735,-0.129,0.2092,0.0147
1764313260610,1.791,3.7358,9.3655,-0.129,0.2092,0.0147
1764313260620,1.791,3.7358,9.3655,0.1129,0.0144,0.095
1764313260630,2.1087,3.813,9.3667,0.1129,0.0144,0.095
1764313260640,2.1087,3.813,9.3667,0.2749,-0.0235,0.1425
1764313260650,2.4873,4.1348,8.8427,0.2749,-0.0235,0.1425
1764313260660,2.4873,4.1348,8.8427,0.2456,0.0072,0.0979
1764313260670,2.4963,4.334,8.2301,0.2456,0.0072,0.0979
1764313260680,2.4963,4.334,8.2301,0.2456,0.0072,0.0979
1764313260690,2.4963,4.334,8.2301,0.2089,-0.2132,0.0237
1764313260700,2.7697,4.5063,8.1003,0.2089,-0.2132,0.0237
1764313260710,2.7697,4.5063,8.1003,0.2885,-0.6571,-0.1315
1764313260720,3.1184,4.8305,8.4389,0.2885,-0.6571,-0.1315
1764313260730,3.1184,4.8305,8.4389,0.4811,-1.1115,-0.3546
1764313260740,3.1184,4.8305,8.4389,0.4811,-1.1115,-0.3546
1764313260750,3.0162,4.6074,9.2016,0.6941,-1.3213,-0.4443
1764313260760,2.4694,4.0762,9.4164,0.6941,-1.3213,-0.4443
1764313260770,2.4694,4.0762,9.4164,0.8752,-1.2011,-0.3334
1764313260780,1.8311,3.9625,9.1514,0.8752,-1.2011,-0.3334
1764313260790,1.8311,3.9625,9.1514,0.9905,-0.9853,-0.0272
1764313260800,2.0261,4.3597,7.6798,0.9905,-0.9853,-0.0272
1764313260810,2.0261,4.3597,7.6798,1.0924,-1.3266,0.1211
1764313260820,2.3384,4.3663,7.4195,1.0924,-1.3266,0.1211
1764313260830,2.3384,4.3663,7.4195,1.0924,-1.3266,0.1211
1764313260840,2.3384,4.3663,7.4195,1.4332,-1.6686,0.1437
1764313260850,2.6333,4.4746,7.3633,1.4332,-1.6686,0.1437
1764313260860,2.6333,4.4746,7.3633,1.543,-1.1926,0.2634
1764313260870,3.3242,4.4411,7.855,1.543,-1.1926,0.2634
1764313260880,3.3242,4.4411,7.855,0.6361,1.8188,0.5811
1764313260890,4.6881,5.2977,6.7896,0.6361,1.8188,0.5811
1764313260900,4.6881,5.2977,6.7896,-1.9589,7.5069,0.9006
1764313260910,7.9729,7.3807,2.6764,-1.9589,7.5069,0.9006
1764313260920,7.9729,7.3807,2.6764,-5.6546,13.333,0.6081
1764313260930,9.3117,9.2764,-0.3123,-5.6546,13.333,0.6081
1764313260940,9.3117,9.2764,-0.3123,-8.4128,17.0266,-0.399
1764313260950,9.3021,9.1101,-2.0596,-8.4128,17.0266,-0.399
1764313260960,9.3021,9.1101,-2.0596,-8.4128,17.0266,-0.399
1764313260970,2.184,4.1599,-2.8552,-8.6987,16.5526,-2.3091
1764313260980,2.184,4.1599,-2.8552,-8.6987,16.5526,-2.3091
1764313260990,2.184,4.1599,-2.8552,-5.5376,10.8144,-4.0161
1764313261000,-9.7071,-4.0313,-5.5896,-5.5376,10.8144,-4.0161
1764313261010,-9.7071,-4.0313,-5.5896,-2.2516,2.4676,-4.395
1764313261020,-18.9476,-11.9468,-0.8841,-2.2516,2.4676,-4.395
1764313261030,-18.9476,-11.9468,-0.8841,-0.5362,-3.5029,-2.5533
1764313261040,-16.2939,-12.3709,11.0991,-0.5362,-3.5029,-2.5533
1764313261050,-16.2939,-12.3709,11.0991,0.1776,-3.3672,-0.7236
1764313261060,-11.9821,-8.1338,12.2429,0.1776,-3.3672,-0.7236
1764313261070,-11.9821,-8.1338,12.2429,-0.1823,-1.3934,-0.0944
1764313261080,-11.3151,-5.6824,9.1914,-0.1823,-1.3934,-0.0944
1764313261090,-11.3151,-5.6824,9.1914,-0.1823,-1.3934,-0.0944
1764313261100,-11.3151,-5.6824,9.1914,-0.5991,-0.9401,0.2463
1764313261110,-10.2138,-3.728,9.5103,-0.5991,-0.9401,0.2463
1764313261120,-10.2138,-3.728,9.5103,-0.1315,-1.5991,0.3526
1764313261130,-9.1454,-2.6895,9.7789,-0.1315,-1.5991,0.3526
1764313261140,-9.1454,-2.6895,9.7789,0.5597,-2.1904,0.3939
1764313261150,-8.3767,-2.5346,9.2106,0.5597,-2.1904,0.3939
1764313261160,-8.3767,-2.5346,9.2106,0.7657,-2.2501,0.5906
1764313261170,-7.142,-2.6925,8.6297,0.7657,-2.2501,0.5906
1764313261180,-7.142,-2.6925,8.6297,0.7372,-2.1615,0.7753
1764313261190,-5.3599,-2.0339,8.9414,0.7372,-2.1615,0.7753
1764313261200,-5.3599,-2.0339,8.9414,0.8141,-2.0401,0.6752
1764313261210,-5.1619,-2.1715,8.458,0.8141,-2.0401,0.6752
1764313261220,-5.1619,-2.1715,8.458,0.8141,-2.0401,0.6752
1764313261230,-5.0219,-2.2337,8.4341,1.1315,-2.532,0.6316
1764313261240,-5.0219,-2.2337,8.4341,1.1315,-2.532,0.6316
1764313261250,-5.0219,-2.2337,8.4341,1.8941,-3.6673,0.6704
1764313261260,-3.664,-1.6576,8.5932,1.8941,-3.6673,0.6704
1764313261270,-3.664,-1.6576,8.5932,2.8349,-4.9025,0.5849
1764313261280,-2.0997,-0.7765,9.1394,2.8349,-4.9025,0.5849
1764313261290,-2.0997,-0.7765,9.1394,3.3659,-5.2626,0.4203
1764313261300,-1.0576,0.1687,8.6447,3.3659,-5.2626,0.4203
1764313261310,-1.0576,0.1687,8.6447,3.0649,-4.7304,0.2964
1764313261320,-0.6712,0.2118,8.5603,3.0649,-4.7304,0.2964
1764313261330,-0.6712,0.2118,8.5603,2.3381,-3.9257,0.3514
1764313261340,-0.1531,0.4798,9.5677,2.3381,-3.9257,0.3514
1764313261350,-0.1531,0.4798,9.5677,2.1829,-3.4916,0.4908
1764313261360,0.6748,1.1067,10.0517,2.1829,-3.4916,0.4908
1764313261370,0.6748,1.1067,10.0517,2.1829,-3.4916,0.4908
1764313261380,1.9896,1.8006,8.9157,2.2794,-2.9966,0.5592
1764313261390,1.9896,1.8006,8.9157,2.2794,-2.9966,0.5592
1764313261400,1.9896,1.8006,8.9157,1.9439,-2.3375,0.5463
1764313261410,2.3306,2.4808,7.6265,1.9439,-2.3375,0.5463
1764313261420,2.3306,2.4808,7.6265,1.5414,-2.0377,0.4415
1764313261430,2.6578,2.8558,6.871,1.5414,-2.0377,0.4415
1764313261440,2.6578,2.8558,6.871,1.5664,-2.5572,0.3161
1764313261450,3.2542,3.3996,7.4752,1.5664,-2.5572,0.3161
1764313261460,3.2542,3.3996,7.4752,1.7414,-2.7686,0.1749
1764313261470,3.8177,3.2859,7.7324,1.7414,-2.7686,0.1749
1764313261480,3.8177,3.2859,7.7324,1.3424,-2.1121,0.2514
1764313261490,5.3109,3.7633,8.659,1.3424,-2.1121,0.2514
1764313261500,5.3109,3.7633,8.659,1.3424,-2.1121,0.2514
1764313261510,4.6516,3.749,8.0794,0.7869,-0.8714,0.2262
1764313261520,4.6516,3.749,8.0794,0.7869,-0.8714,0.2262
1764313261530,4.6516,3.749,8.0794,0.2465,0.2005,0.429
1764313261540,3.6479,3.5432,6.3141,0.2465,0.2005,0.429
1764313261550,3.6479,3.5432,6.3141,-0.5576,0.7202,0.8121
1764313261560,3.6096,3.4253,7.1964,-0.5576,0.7202,0.8121
1764313261570,3.6096,3.4253,7.1964,-1.0157,0.9893,1.0072
1764313261580,4.4495,3.1693,9.5127,-1.0157,0.9893,1.0072
1764313261590,4.4495,3.1693,9.5127,-0.6975,1.0779,1.0443
1764313261600,4.8538,3.8106,9.4152,-0.6975,1.0779,1.0443
1764313261610,4.8538,3.8106,9.4152,-0.2382,0.5553,0.8517
1764313261620,4.5338,3.3769,9.2572,-0.2382,0.5553,0.8517
1764313261630,4.5338,3.3769,9.2572,-0.2382,0.5553,0.8517
1764313261640,4.3633,3.0437,8.7703,0.088,0.2996,0.7088
1764313261650,4.3633,3.0437,8.7703,0.088,0.2996,0.7088
1764313261660,4.3633,3.0437,8.7703,0.14,0.0099,0.6365
1764313261670,5.0596,3.2339,9.2381,0.14,0.0099,0.6365
1764313261680,5.0596,3.2339,9.2381,0.2714,-0.1289,0.4273
1764313261690,4.8766,3.1424,9.5109,0.2714,-0.1289,0.4273
1764313261700,4.8766,3.1424,9.5109,0.495,-0.047,0.2382
1764313261710,4.1462,2.8391,8.8229,0.495,-0.047,0.2382
1764313261720,4.1462,2.8391,8.8229,0.5536,0.0402,0.2334
1764313261730,3.7029,2.8648,7.9854,0.5536,0.0402,0.2334
1764313261740,3.7029,2.8648,7.9854,0.4618,0.1048,0.2983
1764313261750,3.9278,3.1454,7.5027,0.4618,0.1048,0.2983
1764313261760,3.9278,3.1454,7.5027,0.4618,0.1048,0.2983
1764313261770,4.1713,3.3464,7.5577,0.3291,0.0878,0.3147
1764313261780,4.1713,3.3464,7.5577,0.3291,0.0878,0.3147
1764313261790,4.1713,3.3464,7.5577,0.191,0.1695,0.316
1764313261800,4.4327,3.658,7.7252,0.191,0.1695,0.316
1764313261810,4.4327,3.658,7.7252,0.0518,0.2703,0.2702
1764313261820,4.5224,3.7107,7.8897,0.0518,0.2703,0.2702
1764313261830,4.5224,3.7107,7.8897,-0.0504,0.299,0.1964
1764313261840,4.7222,3.6598,8.4036,-0.0504,0.299,0.1964
1764313261850,4.7222,3.6598,8.4036,0.0325,0.2074,0.0718
1764313261860,4.5619,3.4857,8.6794,0.0325,0.2074,0.0718
1764313261870,4.5619,3.4857,8.6794,0.2045,0.0874,-0.0374
1764313261880,4.2245,3.3703,8.6124,0.2045,0.0874,-0.0374
1764313261890,4.2245,3.3703,8.6124,0.2045,0.0874,-0.0374
1764313261900,4.2245,3.3703,8.6124,0.2607,0.0295,-0.0631
1764313261910,3.7298,3.1406,8.1308,0.2607,0.0295,-0.0631
1764313261920,3.7298,3.1406,8.1308,0.2082,0.025,-0.0101
1764313261930,3.9589,3.4373,8.3222,0.2082,0.025,-0.0101
1764313261940,3.9589,3.4373,8.3222,0.1723,0.0119,-0.0579
1764313261950,3.7364,3.1519,8.4018,0.1723,0.0119,-0.0579
1764313261960,3.7364,3.1519,8.4018,0.2204,0.0451,-0.0377
1764313261970,3.7137,3.5809,7.7462,0.2204,0.0451,-0.0377
1764313261980,3.7137,3.5809,7.7462,0.1304,-0.1167,-0.0538
1764313261990,3.7585,3.4887,7.9938,0.1304,-0.1167,-0.0538
1764313262000,3.7585,3.4887,7.9938,-0.0199,-0.0974,-0.0667
1764313262010,4.5033,3.7406,8.7589,-0.0199,-0.0974,-0.0667
1764313262020,4.5033,3.7406,8.7589,-0.0518,-0.0634,-0.1886
1764313262030,4.6576,3.5049,9.9715,-0.0518,-0.0634,-0.1886
1764313262040,4.6576,3.5049,9.9715,-0.0518,-0.0634,-0.1886
1764313262050,4.6576,3.5049,9.9715,0.239,0.2086,-0.318
1764313262060,3.6933,3.2602,9.0604,0.239,0.2086,-0.318
1764313262070,3.6933,3.2602,9.0604,0.4501,0.0345,-0.2505
1764313262080,3.1537,3.3326,8.2074,0.4501,0.0345,-0.2505
1764313262090,3.1537,3.3326,8.2074,0.4481,-0.2005,-0.0756
1764313262100,3.7597,3.8345,8.123,0.4481,-0.2005,-0.0756
1764313262110,3.7597,3.8345,8.123,0.4296,-0.4759,-0.0951
1764313262120,3.7597,3.8345,8.123,0.4296,-0.4759,-0.0951
