Timestamp,ax,ay,az,gx,gy,gz
1764388622200,6.6263,-0.0048,7.1629,0.8897,-0.7573,0.2572
1764388622210,6.6263,-0.0048,7.1629,0.9158,-1.7176,-0.0455
1764388622220,6.1412,0.1214,8.4993,0.9158,-1.7176,-0.0455
1764388622230,6.1412,0.1214,8.4993,0.9158,-1.7176,-0.0455
1764388622240,6.1412,0.1214,8.4993,1.5343,-3.1915,-0.3167
1764388622250,7.6666,0.1101,11.6351,1.5343,-3.1915,-0.3167
1764388622260,7.6666,0.1101,11.6351,2.6996,-3.8597,-0.6098
1764388622270,8.7739,0.4869,10.9687,2.6996,-3.8597,-0.6098
1764388622280,8.7739,0.4869,10.9687,3.1759,-3.7225,-0.8573
1764388622290,10.0241,0.7884,8.4162,3.1759,-3.7225,-0.8573
1764388622300,10.0241,0.7884,8.4162,2.8755,-3.4984,-1.0542
1764388622310,12.1161,2.1165,7.3208,2.8755,-3.4984,-1.0542
1764388622320,12.1161,2.1165,7.3208,2.6783,-3.7002,-1.5522
1764388622330,13.468,3.3434,7.7898,2.6783,-3.7002,-1.5522
1764388622340,13.468,3.3434,7.7898,2.6316,-3.6366,-2.2432
1764388622350,11.7171,2.4826,8.2295,2.6316,-3.6366,-2.2432
1764388622360,11.7171,2.4826,8.2295,2.6316,-3.6366,-2.2432
1764388622370,11.8187,3.1956,7.4004,2.6579,-3.231,-2.4514
1764388622380,11.8187,3.1956,7.4004,2.6579,-3.231,-2.4514
1764388622390,11.8187,3.1956,7.4004,3.3075,-3.7251,-2.7854
1764388622400,11.0865,3.8752,5.9659,3.3075,-3.7251,-2.7854
1764388622410,11.0865,3.8752,5.9659,4.0198,-4.3206,-3.2849
1764388622420,8.3498,3.3135,3.9787,4.0198,-4.3206,-3.2849
1764388622430,8.3498,3.3135,3.9787,4.0867,-4.1044,-3.4647
1764388622440,5.6459,2.6369,1.739,4.0867,-4.1044,-3.4647
1764388622450,5.6459,2.6369,1.739,3.6733,-3.4737,-3.2964
1764388622460,4.1874,2.6022,-1.0576,3.6733,-3.4737,-3.2964
1764388622470,4.1874,2.6022,-1.0576,3.0749,-3.1116,-2.9318
1764388622480,3.2925,3.128,-2.2032,3.0749,-3.1116,-2.9318
1764388622490,3.2925,3.128,-2.2032,2.5247,-2.8469,-2.5418
1764388622500,2.5448,3.6024,-1.6307,2.5247,-2.8469,-2.5418
1764388622510,2.5448,3.6024,-1.6307,2.5247,-2.8469,-2.5418
1764388622520,2.5448,3.6024,-1.6307,2.0308,-2.0772,-2.1509
1764388622530,1.3436,3.3434,-1.5344,2.0308,-2.0772,-2.1509
1764388622540,1.3436,3.3434,-1.5344,1.4786,-0.9777,-1.6191
1764388622550,0.4774,3.131,-2.0788,1.4786,-0.9777,-1.6191
1764388622560,0.4774,3.131,-2.0788,1.1057,-0.2382,-0.9995
1764388622570,1.3053,3.682,-2.7422,1.1057,-0.2382,-0.9995
1764388622580,1.3053,3.682,-2.7422,0.8971,0.1478,-0.5797
1764388622590,3.2267,4.7342,-3.5892,0.8971,0.1478,-0.5797
1764388622600,3.2267,4.7342,-3.5892,0.5889,0.5583,-0.4771
1764388622610,3.6945,5.1242,-3.6526,0.5889,0.5583,-0.4771
1764388622620,3.6945,5.1242,-3.6526,0.3102,0.9572,-0.3774
1764388622630,3.2889,5.3456,-2.8869,0.3102,0.9572,-0.3774
1764388622640,3.2889,5.3456,-2.8869,0.3102,0.9572,-0.3774
1764388622650,3.0054,5.534,-2.7673,0.3485,1.1855,-0.1252
1764388622660,3.0054,5.534,-2.7673,0.3485,1.1855,-0.1252
1764388622670,3.0054,5.534,-2.7673,0.4123,1.3546,0.2051
1764388622680,3.2943,5.674,-2.9659,0.4123,1.3546,0.2051
1764388622690,3.2943,5.674,-2.9659,0.4084,1.5032,0.5402
1764388622700,4.9328,6.2225,-3.6849,0.4084,1.5032,0.5402
1764388622710,4.9328,6.2225,-3.6849,0.2524,1.6473,0.6961
1764388622720,6.6891,6.7525,-4.3119,0.2524,1.6473,0.6961
1764388622730,6.6891,6.7525,-4.3119,0.068,1.5693,0.662
1764388622740,8.0865,7.392,-4.197,0.068,1.5693,0.662
1764388622750,8.0865,7.392,-4.197,-0.0845,1.4702,0.449
1764388622760,7.7575,7.2658,-3.0102,-0.0845,1.4702,0.449
1764388622770,7.7575,7.2658,-3.0102,-0.0845,1.4702,0.449
1764388622780,6.0168,6.3793,-2.2654,-0.2176,1.7174,0.2877
1764388622790,6.0168,6.3793,-2.2654,-0.2176,1.7174,0.2877
1764388622800,6.0168,6.3793,-2.2654,-0.3435,2.0299,0.3314
1764388622810,4.5176,5.6058,-1.7192,-0.3435,2.0299,0.3314
1764388622820,4.5176,5.6058,-1.7192,-0.2628,2.0214,0.4768
1764388622830,3.2955,4.8251,-1.2604,-0.2628,2.0214,0.4768
1764388622840,3.2955,4.8251,-1.2604,0.0145,1.695,0.7694
1764388622850,4.483,4.7414,-0.7723,0.0145,1.695,0.7694
1764388622860,4.483,4.7414,-0.7723,0.4482,1.2996,1.0098
1764388622870,8.1565,6.0574,-1.3986,0.4482,1.2996,1.0098
1764388622880,8.1565,6.0574,-1.3986,0.6478,1.1997,0.7747
1764388622890,9.9607,6.8836,-2.5011,0.6478,1.1997,0.7747
1764388622900,9.9607,6.8836,-2.5011,0.5012,1.2532,0.4242
1764388622910,9.8776,6.9266,-2.5172,0.5012,1.2532,0.4242
1764388622920,9.8776,6.9266,-2.5172,0.5012,1.2532,0.4242
1764388622930,9.8776,6.9266,-2.5172,0.4169,1.2243,0.2466
1764388622940,9.6945,7.0176,-2.1105,0.4169,1.2243,0.2466
1764388622950,9.6945,7.0176,-2.1105,0.5293,1.0548,0.1448
1764388622960,9.7496,7.0379,-1.721,0.5293,1.0548,0.1448
1764388622970,9.7496,7.0379,-1.721,0.6487,1.023,0.0622
1764388622980,9.673,6.8166,-1.8778,0.6487,1.023,0.0622
1764388622990,9.673,6.8166,-1.8778,0.639,1.1692,0.0363
1764388623000,9.6766,6.6042,-2.4491,0.639,1.1692,0.0363
1764388623010,9.6766,6.6042,-2.4491,0.553,1.1897,0.049
1764388623020,10.0594,6.5994,-2.2983,0.553,1.1897,0.049
1764388623030,10.0594,6.5994,-2.2983,0.4846,1.1921,-0.0027
1764388623040,10.2592,6.5312,-1.6307,0.4846,1.1921,-0.0027
1764388623050,10.2592,6.5312,-1.6307,0.4846,1.1921,-0.0027
1764388623060,9.7831,6.1813,-1.2479,0.4569,1.335,-0.1304
1764388623070,9.7831,6.1813,-1.2479,0.4569,1.335,-0.1304
1764388623080,9.7831,6.1813,-1.2479,0.5066,1.4296,-0.2569
1764388623090,8.7541,5.6548,-1.2185,0.5066,1.4296,-0.2569
1764388623100,8.7541,5.6548,-1.2185,0.6597,1.248,-0.3436
1764388623110,7.8658,5.2193,-0.8883,0.6597,1.248,-0.3436
1764388623120,7.8658,5.2193,-0.8883,0.95,0.8813,-0.3986
1764388623130,7.3795,4.9041,-0.5946,0.95,0.8813,-0.3986
1764388623140,7.3795,4.9041,-0.5946,1.2396,0.6371,-0.394
1764388623150,7.124,4.7539,-0.8806,1.2396,0.6371,-0.394
1764388623160,7.124,4.7539,-0.8806,1.2831,0.6504,-0.3293
1764388623170,7.0176,4.7396,-1.0923,1.2831,0.6504,-0.3293
1764388623180,7.0176,4.7396,-1.0923,1.2831,0.6504,-0.3293
1764388623190,7.0176,4.7396,-1.0923,1.1739,0.7833,-0.2262
1764388623200,7.2084,4.8078,-1.1043,1.1739,0.7833,-0.2262
1764388623210,7.2084,4.8078,-1.1043,1.0498,0.8913,-0.1465
1764388623220,7.3615,5.065,-0.9715,1.0498,0.8913,-0.1465
1764388623230,7.3615,5.065,-0.9715,0.9313,1.0145,-0.0927
1764388623240,7.0187,4.9932,-0.7388,0.9313,1.0145,-0.0927
1764388623250,7.0187,4.9932,-0.7388,0.8352,1.1148,0.029
1764388623260,7.0313,5.0189,-0.4068,0.8352,1.1148,0.029
1764388623270,7.0313,5.0189,-0.4068,0.8926,1.0618,0.1333
1764388623280,7.6439,5.2558,-0.3194,0.8926,1.0618,0.1333
1764388623290,7.6439,5.2558,-0.3194,0.8926,1.0618,0.1333
1764388623300,8.1242,5.3952,-0.4642,1.0201,0.9151,0.1304
1764388623310,8.1242,5.3952,-0.4642,1.0201,0.9151,0.1304
1764388623320,8.2056,5.3839,-0.5444,1.0444,0.8598,0.0712
1764388623330,8.2056,5.3839,-0.5444,1.0444,0.8598,0.0712
1764388623340,8.2056,5.3839,-0.5444,1.025,0.797,0.0431
1764388623350,8.2588,5.4688,-0.2746,1.025,0.797,0.0431
1764388623360,8.2588,5.4688,-0.2746,1.0857,0.7007,0.0092
1764388623370,8.123,5.473,-0.1358,1.0857,0.7007,0.0092
1764388623380,8.123,5.473,-0.1358,1.1435,0.6802,-0.0202
1764388623390,8.0542,5.5286,-0.5916,1.1435,0.6802,-0.0202
1764388623400,8.0542,5.5286,-0.5916,1.0971,0.6831,-0.0272
1764388623410,8.1978,5.6788,-1.0481,1.0971,0.6831,-0.0272
1764388623420,8.1978,5.6788,-1.0481,0.9549,0.6846,-0.0466
1764388623430,8.6058,6.0329,-1.2144,0.9549,0.6846,-0.0466
1764388623440,8.6058,6.0329,-1.2144,0.9549,0.6846,-0.0466
1764388623450,8.6058,6.0329,-1.2144,0.7504,0.7477,-0.1345
1764388623460,8.3444,6.0096,-0.731,0.7504,0.7477,-0.1345
1764388623470,8.3444,6.0096,-0.731,0.6353,0.8268,-0.1761
1764388623480,8.0363,5.9521,-0.4098,0.6353,0.8268,-0.1761
1764388623490,8.0363,5.9521,-0.4098,0.6649,0.763,-0.1658
1764388623500,8.3288,6.1573,-0.466,0.6649,0.763,-0.1658
1764388623510,8.3288,6.1573,-0.466,0.7349,0.6081,-0.2088
1764388623520,8.9551,6.3936,-0.8088,0.7349,0.6081,-0.2088
1764388623530,8.9551,6.3936,-0.8088,0.6793,0.5302,-0.3199
1764388623540,9.6371,6.6407,-1.0205,0.6793,0.5302,-0.3199
1764388623550,9.6371,6.6407,-1.0205,0.5357,0.4742,-0.482
1764388623560,10.2586,6.9314,-0.5731,0.5357,0.4742,-0.482
1764388623570,10.2586,6.9314,-0.5731,0.6165,0.1683,-0.7488
1764388623580,11.3276,7.5171,-0.4241,0.6165,0.1683,-0.7488
1764388623590,11.3276,7.5171,-0.4241,0.6165,0.1683,-0.7488
1764388623600,11.3276,7.5171,-0.4241,1.0641,-0.7239,-1.3013
1764388623610,11.9575,7.9807,-0.1932,1.0641,-0.7239,-1.3013
1764388623620,11.9575,7.9807,-0.1932,1.6903,-1.6585,-2.0192
1764388623630,10.675,7.6726,-0.3338,1.6903,-1.6585,-2.0192
1764388623640,10.675,7.6726,-0.3338,2.0528,-2.0841,-2.574
1764388623650,8.1751,6.6873,-0.201,2.0528,-2.0841,-2.574
1764388623660,8.1751,6.6873,-0.201,2.2817,-2.0885,-2.8094
1764388623670,6.6598,6.1723,-1.1982,2.2817,-2.0885,-2.8094
1764388623680,6.6598,6.1723,-1.1982,2.465,-2.2515,-2.9984
1764388623690,5.5687,5.8164,-2.5639,2.465,-2.2515,-2.9984
1764388623700,5.5687,5.8164,-2.5639,2.465,-2.2515,-2.9984
1764388623710,3.3918,5.0859,-3.3452,2.4819,-2.5078,-3.2269
1764388623720,3.3918,5.0859,-3.3452,2.4819,-2.5078,-3.2269
1764388623730,0.664,4.2676,-2.8983,2.3123,-2.6116,-3.2377
1764388623740,0.664,4.2676,-2.8983,2.3123,-2.6116,-3.2377
1764388623750,0.664,4.2676,-2.8983,2.1257,-2.3726,-2.9123
1764388623760,-1.5398,3.2602,-2.875,2.1257,-2.3726,-2.9123
1764388623770,-1.5398,3.2602,-2.875,1.8314,-1.7703,-2.3427
1764388623780,-3.5587,1.9699,-4.1683,1.8314,-1.7703,-2.3427
1764388623790,-3.5587,1.9699,-4.1683,1.1915,-1.0857,-1.5232
1764388623800,-4.2927,1.5045,-5.7954,1.1915,-1.0857,-1.5232
1764388623810,-4.2927,1.5045,-5.7954,0.3856,-0.6774,-0.7052
1764388623820,-4.5051,0.9793,-5.2086,0.3856,-0.6774,-0.7052
1764388623830,-4.5051,0.9793,-5.2086,-0.4908,0.058,0.1113
1764388623840,-5.7129,-0.4558,-3.2847,-0.4908,0.058,0.1113
1764388623850,-5.7129,-0.4558,-3.2847,-0.4908,0.058,0.1113
1764388623860,-9.6299,-2.2762,-1.678,-1.5689,1.7065,1.2171
1764388623870,-9.6299,-2.2762,-1.678,-1.5689,1.7065,1.2171
1764388623880,-9.6299,-2.2762,-1.678,-3.111,4.485,3.3081
1764388623890,-15.6215,-5.2893,-2.1057,-3.111,4.485,3.3081
1764388623900,-15.6215,-5.2893,-2.1057,-6.3104,8.6955,7.0466
1764388623910,-14.9486,-11.939,-1.6175,-6.3104,8.6955,7.0466
1764388623920,-14.9486,-11.939,-1.6175,-11.4299,12.6871,11.4267
1764388623930,-3.6209,-24.0126,6.6174,-11.4299,12.6871,11.4267
1764388623940,-3.6209,-24.0126,6.6174,-16.5508,15.7018,13.9393
1764388623950,7.8377,-31.2969,20.8923,-16.5508,15.7018,13.9393
1764388623960,7.8377,-31.2969,20.8923,-19.8833,18.3872,12.845
1764388623970,5.9324,-30.0891,35.6991,-19.8833,18.3872,12.845
1764388623980,5.9324,-30.0891,35.6991,-18.0947,17.1024,9.9879
1764388623990,5.9324,-30.0891,35.6991,-18.0947,17.1024,9.9879
1764388624000,6.2776,-21.2196,50.4275,-18.0947,17.1024,9.9879
1764388624010,6.2776,-21.2196,50.4275,-7.0963,7.1404,6.17
1764388624020,22.1037,-5.2851,45.2561,-7.0963,7.1404,6.17
1764388624030,22.1037,-5.2851,45.2561,7.2777,-5.448,-1.0003
1764388624040,11.8271,-11.4389,6.8722,7.2777,-5.448,-1.0003
1764388624050,11.8271,-11.4389,6.8722,7.8812,-10.9247,-4.6936
1764388624060,-6.6855,-18.1149,8.7709,7.8812,-10.9247,-4.6936
1764388624070,-6.6855,-18.1149,8.7709,2.3627,-6.2724,-1.3648
1764388624080,-4.931,-11.0231,22.5374,2.3627,-6.2724,-1.3648
1764388624090,-4.931,-11.0231,22.5374,-0.431,1.9731,1.5892
1764388624100,0.2106,-7.2203,19.9502,-0.431,1.9731,1.5892
1764388624110,0.2106,-7.2203,19.9502,-0.9829,5.9544,3.0125
1764388624120,5.6758,-4.7055,9.0544,-0.9829,5.9544,3.0125
1764388624130,5.6758,-4.7055,9.0544,-0.9829,5.9544,3.0125
1764388624140,5.6758,-4.7055,9.0544,-0.4496,3.4129,2.3955
1764388624150,7.812,-1.7671,6.7178,-0.4496,3.4129,2.3955
1764388624160,7.812,-1.7671,6.7178,-0.4496,3.4129,2.3955
