Timestamp,ax,ay,az,gx,gy,gz
1764313192230,1.7025,3.8638,8.4287,0.5741,-0.5415,-0.0812
1764313192240,1.7025,3.8638,8.4287,0.5867,-0.7112,-0.0228
1764313192250,1.6397,3.7986,8.9617,0.5867,-0.7112,-0.0228
1764313192260,1.6397,3.7986,8.9617,0.6351,-0.3981,0.1378
1764313192270,2.5202,4.3262,8.3043,0.6351,-0.3981,0.1378
1764313192280,2.5202,4.3262,8.3043,0.4071,-0.2112,0.1741
1764313192290,2.8427,4.2879,9.1214,0.4071,-0.2112,0.1741
1764313192300,2.8427,4.2879,9.1214,0.4313,0.016,0.144
1764313192310,2.8427,4.2879,9.1214,0.4313,0.016,0.144
1764313192320,2.9874,4.3011,9.125,0.4313,0.016,0.144
1764313192330,3.1472,4.5703,9.0389,0.6356,-0.0805,0.0823
1764313192340,3.1472,4.5703,9.0389,0.6356,-0.0805,0.0823
1764313192350,3.1472,4.5703,9.0389,0.8155,-0.1558,-0.0047
1764313192360,2.9276,4.7079,8.8199,0.8155,-0.1558,-0.0047
1764313192370,2.9276,4.7079,8.8199,0.7781,0.2013,-0.0142
1764313192380,2.945,4.8945,8.4455,0.7781,0.2013,-0.0142
1764313192390,2.945,4.8945,8.4455,0.4626,0.9922,0.0889
1764313192400,4.1336,5.3013,9.2124,0.4626,0.9922,0.0889
1764313192410,4.1336,5.3013,9.2124,-0.2999,3.2362,0.1733
1764313192420,7.3986,6.0712,10.7707,-0.2999,3.2362,0.1733
1764313192430,7.3986,6.0712,10.7707,-1.996,8.2354,0.0087
1764313192440,10.4489,7.6917,8.531,-1.996,8.2354,0.0087
1764313192450,10.4489,7.6917,8.531,-1.996,8.2354,0.0087
1764313192460,9.9864,8.3976,2.1458,-4.3156,14.0273,-0.5061
1764313192470,9.9864,8.3976,2.1458,-4.3156,14.0273,-0.5061
1764313192480,9.9864,8.3976,2.1458,-5.7907,16.5897,-1.2518
1764313192490,6.481,8.1129,-2.8839,-5.7907,16.5897,-1.2518
1764313192500,6.481,8.1129,-2.8839,-4.8935,13.9215,-2.3801
1764313192510,-1.3035,5.6118,-7.6104,-4.8935,13.9215,-2.3801
1764313192520,-1.3035,5.6118,-7.6104,-2.0869,6.1623,-3.68
1764313192530,-9.6108,0.4863,-7.9478,-2.0869,6.1623,-3.68
1764313192540,-9.6108,0.4863,-7.9478,-0.2921,-1.6541,-4.0739
1764313192550,-13.4536,-6.722,2.208,-0.2921,-1.6541,-4.0739
1764313192560,-13.4536,-6.722,2.208,-0.2921,-1.6541,-4.0739
1764313192570,-11.8409,-7.413,9.9512,-0.4681,-3.1707,-2.6
1764313192580,-11.8409,-7.413,9.9512,-0.4681,-3.1707,-2.6
1764313192590,-11.1601,-5.6871,9.3655,-1.0915,-0.8861,-1.4045
1764313192600,-11.1601,-5.6871,9.3655,-1.0915,-0.8861,-1.4045
1764313192610,-11.1601,-5.6871,9.3655,-1.1179,0.0544,-1.031
1764313192620,-12.2477,-4.8084,7.7767,-1.1179,0.0544,-1.031
1764313192630,-12.2477,-4.8084,7.7767,-0.4078,-1.0146,-0.7329
1764313192640,-12.2237,-4.0104,7.7037,-0.4078,-1.0146,-0.7329
1764313192650,-12.2237,-4.0104,7.7037,0.41,-2.1921,-0.2975
1764313192660,-11.08,-3.0562,7.0905,0.41,-2.1921,-0.2975
1764313192670,-11.08,-3.0562,7.0905,0.744,-2.9062,0.1382
1764313192680,-9.082,-2.4951,6.8883,0.744,-2.9062,0.1382
1764313192690,-9.082,-2.4951,6.8883,0.9887,-3.7579,0.3012
1764313192700,-7.078,-2.0351,8.0172,0.9887,-3.7579,0.3012
1764313192710,-7.078,-2.0351,8.0172,0.9887,-3.7579,0.3012
1764313192720,-5.6662,-1.7946,9.5222,1.7794,-5.2589,0.1568
1764313192730,-5.6662,-1.7946,9.5222,1.7794,-5.2589,0.1568
1764313192740,-4.267,-1.5811,11.5131,3.1568,-7.3594,-0.0826
1764313192750,-4.267,-1.5811,11.5131,3.1568,-7.3594,-0.0826
1764313192760,-4.267,-1.5811,11.5131,4.8379,-9.2056,-0.1604
1764313192770,-2.2648,-0.9314,12.4654,4.8379,-9.2056,-0.1604
1764313192780,-2.2648,-0.9314,12.4654,6.1074,-9.7473,-0.0895
1764313192790,-0.7591,0.7789,10.5206,6.1074,-9.7473,-0.0895
1764313192800,-0.7591,0.7789,10.5206,5.9865,-8.5349,0.1631
1764313192810,0.7765,2.4915,8.8457,5.9865,-8.5349,0.1631
1764313192820,0.7765,2.4915,8.8457,4.3118,-5.1273,0.6411
1764313192830,3.3775,3.5928,7.1222,4.3118,-5.1273,0.6411
1764313192840,3.3775,3.5928,7.1222,1.7975,-0.9943,1.0159
1764313192850,5.33,5.3091,5.8307,1.7975,-0.9943,1.0159
1764313192860,5.33,5.3091,5.8307,1.7975,-0.9943,1.0159
1764313192870,5.1942,5.6566,4.9591,-0.336,1.9998,0.9084
1764313192880,5.1942,5.6566,4.9591,-0.336,1.9998,0.9084
1764313192890,5.1942,5.6566,4.9591,-1.1173,2.3057,0.4241
1764313192900,3.6915,5.0614,6.0269,-1.1173,2.3057,0.4241
1764313192910,3.6915,5.0614,6.0269,-0.4862,0.9161,-0.0231
1764313192920,2.3049,3.9099,7.258,-0.4862,0.9161,-0.0231
1764313192930,2.3049,3.9099,7.258,0.2698,-0.3024,-0.1607
1764313192940,1.3974,3.0102,8.1673,0.2698,-0.3024,-0.1607
1764313192950,1.3974,3.0102,8.1673,0.4966,-0.4539,0.08
1764313192960,1.6732,2.991,7.9699,0.4966,-0.4539,0.08
1764313192970,1.6732,2.991,7.9699,0.175,-0.0003,0.3884
1764313192980,2.8774,3.5892,8.0638,0.175,-0.0003,0.3884
1764313192990,2.8774,3.5892,8.0638,0.175,-0.0003,0.3884
1764313193000,3.4092,4.0457,8.7595,-0.1871,0.3716,0.4195
1764313193010,3.4092,4.0457,8.7595,-0.1871,0.3716,0.4195
1764313193020,3.4092,4.0457,8.7595,-0.2262,0.4458,0.2474
1764313193030,3.1406,4.0552,8.8259,-0.2262,0.4458,0.2474
1764313193040,3.1406,4.0552,8.8259,-0.0962,0.2498,0.0754
1764313193050,2.5902,4.1934,9.2046,-0.0962,0.2498,0.0754
1764313193060,2.5902,4.1934,9.2046,-0.0473,0.4189,0.0072
1764313193070,1.791,3.2818,9.4881,-0.0473,0.4189,0.0072
1764313193080,1.791,3.2818,9.4881,-0.1561,0.9442,0.3141
1764313193090,1.605,3.5432,8.6381,-0.1561,0.9442,0.3141
1764313193100,1.605,3.5432,8.6381,-0.4869,1.2805,0.6333
1764313193110,2.2331,3.9302,8.2935,-0.4869,1.2805,0.6333
1764313193120,2.2331,3.9302,8.2935,-0.4869,1.2805,0.6333
1764313193130,2.7535,3.9182,8.8869,-0.7034,1.2304,0.6322
1764313193140,2.7535,3.9182,8.8869,-0.7034,1.2304,0.6322
1764313193150,2.7535,3.9182,8.8869,-0.5771,0.976,0.3662
1764313193160,2.3545,3.5545,9.4385,-0.5771,0.976,0.3662
1764313193170,2.3545,3.5545,9.4385,-0.1833,0.4456,0.1367
1764313193180,1.6798,3.2447,9.5438,-0.1833,0.4456,0.1367
1764313193190,1.6798,3.2447,9.5438,0.1936,-0.0302,0.0617
1764313193200,1.2473,3.2124,9.1825,0.1936,-0.0302,0.0617
1764313193210,1.2473,3.2124,9.1825,0.2744,-0.2078,0.0958
1764313193220,1.1611,3.2865,8.994,0.2744,-0.2078,0.0958
1764313193230,1.1611,3.2865,8.994,0.0761,-0.0221,0.1626
1764313193240,1.0403,3.1938,8.9127,0.0761,-0.0221,0.1626
1764313193250,1.0403,3.1938,8.9127,-0.1512,0.19,0.2375
1764313193260,1.0403,3.1938,8.9127,-0.1512,0.19,0.2375
1764313193270,0.9936,3.1621,9.1801,-0.1512,0.19,0.2375
1764313193280,1.2999,3.0185,9.8692,-0.1949,0.2043,0.2802
1764313193290,1.2999,3.0185,9.8692,-0.1949,0.2043,0.2802
1764313193300,1.2999,3.0185,9.8692,0.047,0.1037,0.2526
1764313193310,1.1689,2.9539,9.3673,0.047,0.1037,0.2526
1764313193320,1.1689,2.9539,9.3673,0.2434,-0.0663,0.2225
1764313193330,1.0612,3.0054,9.0544,0.2434,-0.0663,0.2225
1764313193340,1.0612,3.0054,9.0544,0.2837,-0.2369,0.2136
1764313193350,0.8423,2.8175,8.8774,0.2837,-0.2369,0.2136
1764313193360,0.8423,2.8175,8.8774,0.2618,-0.233,0.3163
1764313193370,0.9655,2.9324,8.5472,0.2618,-0.233,0.3163
1764313193380,0.9655,2.9324,8.5472,0.0761,-0.1445,0.4305
1764313193390,1.3705,3.058,8.9109,0.0761,-0.1445,0.4305
1764313193400,1.3705,3.058,8.9109,0.0761,-0.1445,0.4305
1764313193410,1.3705,3.058,8.9109,-0.093,0.0866,0.5087
1764313193420,1.5284,3.1717,8.8343,-0.093,0.0866,0.5087
1764313193430,1.5284,3.1717,8.8343,-0.2274,0.2453,0.5215
1764313193440,1.8173,3.1567,9.5079,-0.2274,0.2453,0.5215
1764313193450,1.8173,3.1567,9.5079,-0.2314,0.1782,0.4615
1764313193460,2.1565,3.0999,10.5942,-0.2314,0.1782,0.4615
1764313193470,2.1565,3.0999,10.5942,0.1022,0.2019,0.3931
1764313193480,2.2445,3.0257,10.4315,0.1022,0.2019,0.3931
1764313193490,2.2445,3.0257,10.4315,0.3305,0.1692,0.3383
1764313193500,1.9831,3.2608,10.0259,0.3305,0.1692,0.3383
1764313193510,1.9831,3.2608,10.0259,0.4862,0.0324,0.2973
1764313193520,1.6403,3.1699,9.5127,0.4862,0.0324,0.2973
1764313193530,1.6403,3.1699,9.5127,0.4862,0.0324,0.2973
1764313193540,1.7833,3.2973,9.1567,0.5738,-0.1219,0.3496
1764313193550,1.7833,3.2973,9.1567,0.5738,-0.1219,0.3496
1764313193560,1.7833,3.2973,9.1567,0.6341,-0.3894,0.3761
1764313193570,2.2337,3.4301,9.5204,0.6341,-0.3894,0.3761
1764313193580,2.2337,3.4301,9.5204,0.7911,-0.511,0.3383
1764313193590,2.3994,3.524,9.3242,0.7911,-0.511,0.3383
1764313193600,2.3994,3.524,9.3242,0.9479,-0.6704,0.2564
1764313193610,1.4979,3.3817,8.6895,0.9479,-0.6704,0.2564
1764313193620,1.4979,3.3817,8.6895,1.1238,-0.9865,0.3022
1764313193630,1.0253,3.192,8.2247,1.1238,-0.9865,0.3022
1764313193640,1.0253,3.192,8.2247,1.2897,-1.5253,0.5405
1764313193650,1.5858,3.2608,8.1374,1.2897,-1.5253,0.5405
1764313193660,1.5858,3.2608,8.1374,1.2897,-1.5253,0.5405
1764313193670,1.5858,3.2608,8.1374,1.6672,-2.1467,0.6599
1764313193680,2.674,3.4899,8.5968,1.6672,-2.1467,0.6599
1764313193690,2.674,3.4899,8.5968,1.9853,-2.142,0.7234
1764313193700,3.746,4.081,8.592,1.9853,-2.142,0.7234
1764313193710,3.746,4.081,8.592,1.6296,-0.8042,0.8179
1764313193720,5.9689,5.0644,8.9204,1.6296,-0.8042,0.8179
1764313193730,5.9689,5.0644,8.9204,0.0324,2.8827,1.0191
1764313193740,10.6511,7.4656,9.6538,0.0324,2.8827,1.0191
1764313193750,10.6511,7.4656,9.6538,-3.2779,9.8548,0.7121
1764313193760,13.2006,9.4612,7.1892,-3.2779,9.8548,0.7121
1764313193770,13.2006,9.4612,7.1892,-6.9237,16.608,-0.0678
1764313193780,11.2205,9.3847,3.5492,-6.9237,16.608,-0.0678
1764313193790,11.2205,9.3847,3.5492,-8.3323,19.1859,-1.0253
1764313193800,4.6421,6.6915,-1.0229,-8.3323,19.1859,-1.0253
1764313193810,4.6421,6.6915,-1.0229,-8.3323,19.1859,-1.0253
1764313193820,4.6421,6.6915,-1.0229,-6.1088,14.9448,-2.0702
1764313193830,-4.7198,2.1858,-4.3848,-6.1088,14.9448,-2.0702
1764313193840,-4.7198,2.1858,-4.3848,-1.9968,5.6226,-3.0435
1764313193850,-13.0923,-3.1155,-2.4778,-1.9968,5.6226,-3.0435
1764313193860,-13.0923,-3.1155,-2.4778,0.8489,-2.0759,-2.7747
1764313193870,-14.1081,-7.4399,5.6937,0.8489,-2.0759,-2.7747
1764313193880,-14.1081,-7.4399,5.6937,0.9175,-2.4079,-1.0869
1764313193890,-9.9434,-5.6219,7.3974,0.9175,-2.4079,-1.0869
1764313193900,-9.9434,-5.6219,7.3974,-0.4302,0.016,-0.2317
1764313193910,-8.0985,-3.0401,5.47,-0.4302,0.016,-0.2317
1764313193920,-8.0985,-3.0401,5.47,-0.9368,0.2051,-0.4052
1764313193930,-9.067,-2.8247,6.5689,-0.9368,0.2051,-0.4052
1764313193940,-9.067,-2.8247,6.5689,-0.9368,0.2051,-0.4052
1764313193950,-9.4564,-2.6237,7.2778,-0.1906,-1.0565,-0.5444
1764313193960,-9.4564,-2.6237,7.2778,-0.1906,-1.0565,-0.5444
1764313193970,-9.4564,-2.6237,7.2778,0.6568,-2.1567,-0.4021
1764313193980,-9.262,-2.4628,6.6694,0.6568,-2.1567,-0.4021
1764313193990,-9.262,-2.4628,6.6694,1.0591,-2.8949,-0.1229
1764313194000,-8.126,-2.1565,5.9934,1.0591,-2.8949,-0.1229
1764313194010,-8.126,-2.1565,5.9934,1.2033,-3.8035,-0.0215
1764313194020,-6.5342,-1.7707,6.5785,1.2033,-3.8035,-0.0215
1764313194030,-6.5342,-1.7707,6.5785,1.5759,-5.2683,-0.1713
1764313194040,-4.8305,-1.6606,8.9635,1.5759,-5.2683,-0.1713
1764313194050,-4.8305,-1.6606,8.9635,2.5708,-7.1364,-0.4759
1764313194060,-3.789,-1.5326,12.6515,2.5708,-7.1364,-0.4759
1764313194070,-3.789,-1.5326,12.6515,2.5708,-7.1364,-0.4759
1764313194080,-2.5747,-1.1689,13.7904,3.9538,-8.2421,-0.6171
1764313194090,-2.5747,-1.1689,13.7904,3.9538,-8.2421,-0.6171
1764313194100,-2.5747,-1.1689,13.7904,4.6888,-7.9012,-0.4314
1764313194110,-0.536,0.0993,13.7444,4.6888,-7.9012,-0.4314
1764313194120,-0.536,0.0993,13.7444,4.2121,-5.5445,-0.0983
1764313194130,0.469,1.4895,12.0473,4.2121,-5.5445,-0.0983
1764313194140,0.469,1.4895,12.0473,2.7431,-2.1053,0.3532
1764313194150,1.0259,2.4598,8.4066,2.7431,-2.1053,0.3532
1764313194160,1.0259,2.4598,8.4066,1.1243,0.1961,0.723
1764313194170,1.9729,3.5498,6.4475,1.1243,0.1961,0.723
1764313194180,1.9729,3.5498,6.4475,0.1034,0.9453,0.6387
1764313194190,2.458,3.99,6.5623,0.1034,0.9453,0.6387
1764313194200,2.458,3.99,6.5623,0.1034,0.9453,0.6387
1764313194210,2.0853,3.3882,7.6409,-0.0974,0.6026,0.2375
1764313194220,2.0853,3.3882,7.6409,-0.0974,0.6026,0.2375
1764313194230,2.0853,3.3882,7.6409,0.1327,0.1628,-0.0466
1764313194240,1.1677,2.5842,7.9872,0.1327,0.1628,-0.0466
1764313194250,1.1677,2.5842,7.9872,0.1643,0.0344,-0.0641
1764313194260,0.7657,2.211,8.2457,0.1643,0.0344,-0.0641
1764313194270,0.7657,2.211,8.2457,0.0174,0.0987,0.0554
1764313194280,1.0786,2.458,8.5023,0.0174,0.0987,0.0554
1764313194290,1.0786,2.458,8.5023,-0.1361,0.1741,0.095
1764313194300,1.2491,2.7171,8.8516,-0.1361,0.1741,0.095
1764313194310,1.2491,2.7171,8.8516,-0.2074,0.1585,0.0402
1764313194320,1.2473,2.744,9.1681,-0.2074,0.1585,0.0402
1764313194330,1.2473,2.744,9.1681,-0.1475,0.0011,-0.0434
1764313194340,1.477,2.817,9.7035,-0.1475,0.0011,-0.0434
1764313194350,1.477,2.817,9.7035,-0.1475,0.0011,-0.0434
1764313194360,1.477,2.817,9.7035,0.0018,-0.0935,-0.1907
1764313194370,0.9458,2.5328,10.2329,0.0018,-0.0935,-0.1907
1764313194380,0.9458,2.5328,10.2329,0.1352,0.1538,-0.2124
1764313194390,0.0987,2.0225,9.3224,0.1352,0.1538,-0.2124
1764313194400,0.0987,2.0225,9.3224,0.0605,0.2332,0.0967
1764313194410,0.3428,2.6979,8.8869,0.0605,0.2332,0.0967
1764313194420,0.3428,2.6979,8.8869,-0.2831,0.4111,0.3015
1764313194430,1.0385,2.6542,9.4726,-0.2831,0.4111,0.3015
1764313194440,1.0385,2.6542,9.4726,-0.5478,0.8231,0.3122
1764313194450,1.2885,2.61,9.9769,-0.5478,0.8231,0.3122
1764313194460,1.2885,2.61,9.9769,-0.591,1.0863,0.2271
1764313194470,1.2156,2.5633,9.9817,-0.591,1.0863,0.2271
1764313194480,1.2156,2.5633,9.9817,-0.591,1.0863,0.2271
1764313194490,0.6957,2.6094,9.7083,-0.4029,0.9067,0.0421
1764313194500,0.6957,2.6094,9.7083,-0.4029,0.9067,0.0421
1764313194510,0.6957,2.6094,9.7083,-0.0625,0.2734,-0.1562
1764313194520,0.0365,2.327,9.5617,-0.0625,0.2734,-0.1562
1764313194530,0.0365,2.327,9.5617,0.2222,-0.3625,-0.2185
1764313194540,-0.0957,2.3336,9.6347,0.2222,-0.3625,-0.2185
1764313194550,-0.0957,2.3336,9.6347,0.3595,-0.5715,-0.195
1764313194560,0.0861,2.388,9.3063,0.3595,-0.5715,-0.195
1764313194570,0.0861,2.388,9.3063,0.2133,-0.4853,-0.1558
1764313194580,0.7208,2.3653,9.8614,0.2133,-0.4853,-0.1558
1764313194590,0.7208,2.3653,9.8614,0.1025,-0.1353,-0.1717
1764313194600,1.1533,2.6542,9.5713,0.1025,-0.1353,-0.1717
1764313194610,1.1533,2.6542,9.5713,0.1025,-0.1353,-0.1717
1764313194620,1.1533,2.6542,9.5713,-0.0232,0.1775,-0.2728
1764313194630,0.9141,2.7057,9.0335,-0.0232,0.1775,-0.2728
1764313194640,0.9141,2.7057,9.0335,-0.1446,0.183,-0.3642
1764313194650,0.335,2.5573,9.2088,-0.1446,0.183,-0.3642
1764313194660,0.335,2.5573,9.2088,-0.1161,-0.0205,-0.3864
1764313194670,0.3529,2.2283,10.0373,-0.1161,-0.0205,-0.3864
1764313194680,0.3529,2.2283,10.0373,0.1112,-0.2987,-0.3908
1764313194690,0.3721,2.1117,10.5571,0.1112,-0.2987,-0.3908
1764313194700,0.3721,2.1117,10.5571,0.3734,-0.3549,-0.3752
1764313194710,0.3936,2.2893,10.0624,0.3734,-0.3549,-0.3752
1764313194720,0.3936,2.2893,10.0624,0.4213,-0.3435,-0.3563
1764313194730,0.332,2.4072,9.7579,0.4213,-0.3435,-0.3563
1764313194740,0.332,2.4072,9.7579,0.3363,-0.2086,-0.3154
1764313194750,0.0778,2.4138,9.4786,0.3363,-0.2086,-0.3154
1764313194760,0.0778,2.4138,9.4786,0.3363,-0.2086,-0.3154
1764313194770,0.0778,2.4138,9.4786,0.2627,-0.2042,-0.2544
1764313194780,0.0814,2.522,9.4534,0.2627,-0.2042,-0.2544
1764313194790,0.0814,2.522,9.4534,0.3477,-0.469,-0.232
1764313194800,0.2949,2.6483,9.7035,0.3477,-0.469,-0.232
1764313194810,0.2949,2.6483,9.7035,0.5765,-0.8118,-0.2647
1764313194820,0.5755,2.808,9.9093,0.5765,-0.8118,-0.2647
1764313194830,0.5755,2.808,9.9093,0.7724,-1.0142,-0.2926
1764313194840,0.6156,2.8122,9.8189,0.7724,-1.0142,-0.2926
1764313194850,0.6156,2.8122,9.8189,0.9047,-1.1756,-0.263
1764313194860,0.786,3.122,9.6844,0.9047,-1.1756,-0.263
1764313194870,0.786,3.122,9.6844,0.9047,-1.1756,-0.263
1764313194880,1.2664,3.5833,9.5079,1.016,-1.279,-0.2459
1764313194890,1.2664,3.5833,9.5079,1.016,-1.279,-0.2459
1764313194900,1.7551,3.8895,9.2572,1.0574,-1.274,-0.272
1764313194910,1.7551,3.8895,9.2572,1.0574,-1.274,-0.272
1764313194920,1.7551,3.8895,9.2572,1.0782,-1.2911,-0.3546
1764313194930,1.6762,3.8632,8.5914,1.0782,-1.2911,-0.3546
1764313194940,1.6762,3.8632,8.5914,1.108,-1.4203,-0.4038
1764313194950,1.742,4.1791,7.9813,1.108,-1.4203,-0.4038
1764313194960,1.742,4.1791,7.9813,1.0588,-1.558,-0.4607
1764313194970,0.6969,3.9769,7.745,1.0588,-1.558,-0.4607
1764313194980,0.6969,3.9769,7.745,0.9769,-1.4242,-0.2555
1764313194990,0.4134,3.6449,7.3621,0.9769,-1.4242,-0.2555
1764313195000,0.4134,3.6449,7.3621,0.6915,-0.9606,0.2534
1764313195010,2.4179,4.1462,8.0363,0.6915,-0.9606,0.2534
1764313195020,2.4179,4.1462,8.0363,0.6915,-0.9606,0.2534
1764313195030,6.5545,5.9533,10.6738,-0.1773,0.9019,0.4937
1764313195040,6.5545,5.9533,10.6738,-0.1773,0.9019,0.4937
1764313195050,6.5545,5.9533,10.6738,-2.0391,5.5396,0.3076
1764313195060,10.9938,7.7611,12.6616,-2.0391,5.5396,0.3076
1764313195070,10.9938,7.7611,12.6616,-4.841,12.8576,-0.4662
1764313195080,12.4271,8.4544,9.4552,-4.841,12.8576,-0.4662
1764313195090,12.4271,8.4544,9.4552,-6.8194,18.6659,-1.5999
1764313195100,9.2285,6.5169,4.794,-6.8194,18.6659,-1.5999
1764313195110,9.2285,6.5169,4.794,-5.6103,18.9851,-2.5731
1764313195120,-1.5852,1.407,-4.1856,-5.6103,18.9851,-2.5731
1764313195130,-1.5852,1.407,-4.1856,-1.2095,10.04,-3.083
1764313195140,-14.8546,-0.8841,-10.5081,-1.2095,10.04,-3.083
1764313195150,-14.8546,-0.8841,-10.5081,-1.2095,10.04,-3.083
1764313195160,-16.3286,-5.3803,-0.8441,2.7904,-2.3837,-2.8865
1764313195170,-16.3286,-5.3803,-0.8441,2.7904,-2.3837,-2.8865
1764313195180,-16.3286,-5.3803,-0.8441,2.5931,-4.8419,-0.978
1764313195190,-9.3589,-3.6359,7.4931,2.5931,-4.8419,-0.978
1764313195200,-9.3589,-3.6359,7.4931,0.3549,-0.5336,-0.0255
1764313195210,-6.0347,-0.1831,4.6385,0.3549,-0.5336,-0.0255
1764313195220,-6.0347,-0.1831,4.6385,-0.8483,0.8745,-0.6391
1764313195230,-9.2255,-1.2766,4.7486,-0.8483,0.8745,-0.6391
1764313195240,-9.2255,-1.2766,4.7486,-0.0673,-0.9812,-0.952
1764313195250,-11.2062,-2.147,6.1178,-0.0673,-0.9812,-0.952
1764313195260,-11.2062,-2.147,6.1178,1.0165,-2.7443,-0.6464
1764313195270,-11.2576,-2.138,5.1924,1.0165,-2.7443,-0.6464
1764313195280,-11.2576,-2.138,5.1924,1.46,-3.9509,-0.1509
1764313195290,-9.4792,-1.4405,4.5147,1.46,-3.9509,-0.1509
1764313195300,-9.4792,-1.4405,4.5147,1.46,-3.9509,-0.1509
1764313195310,-9.4792,-1.4405,4.5147,1.8048,-5.4634,0.0438
1764313195320,-7.0528,-0.131,4.6528,1.8048,-5.4634,0.0438
1764313195330,-7.0528,-0.131,4.6528,2.3954,-7.6401,-0.2071
1764313195340,-5.196,0.1131,6.4654,2.3954,-7.6401,-0.2071
1764313195350,-5.196,0.1131,6.4654,3.0647,-9.5362,-0.4047
1764313195360,-2.8552,0.0592,10.0439,3.0647,-9.5362,-0.4047
1764313195370,-2.8552,0.0592,10.0439,3.7698,-10.1382,-0.4429
1764313195380,-0.6556,0.8088,12.722,3.7698,-10.1382,-0.4429
1764313195390,-0.6556,0.8088,12.722,4.3856,-9.3722,-0.3496
1764313195400,1.0672,2.3892,13.4351,4.3856,-9.3722,-0.3496
1764313195410,1.0672,2.3892,13.4351,3.9144,-6.2885,-0.0414
1764313195420,1.8054,3.3823,10.867,3.9144,-6.2885,-0.0414
1764313195430,1.8054,3.3823,10.867,3.9144,-6.2885,-0.0414
1764313195440,3.0951,3.8172,8.1248,1.8016,-1.803,0.4407
1764313195450,3.0951,3.8172,8.1248,1.8016,-1.803,0.4407
1764313195460,3.0951,3.8172,8.1248,-0.449,1.54,0.6953
1764313195470,3.5797,4.6983,7.8808,-0.449,1.54,0.6953
1764313195480,3.5797,4.6983,7.8808,-1.3648,2.7767,0.4473
1764313195490,2.6859,4.4734,7.7222,-1.3648,2.7767,0.4473
1764313195500,2.6859,4.4734,7.7222,-0.978,1.7804,0.016
1764313195510,1.6223,3.7932,8.4897,-0.978,1.7804,0.016
1764313195520,1.6223,3.7932,8.4897,0.026,0.0883,-0.2865
1764313195530,0.8722,2.9797,9.2949,0.026,0.0883,-0.2865
1764313195540,0.8722,2.9797,9.2949,0.6799,-0.7837,-0.2865
1764313195550,0.5492,2.482,9.3129,0.6799,-0.7837,-0.2865
1764313195560,0.5492,2.482,9.3129,0.6799,-0.7837,-0.2865
1764313195570,0.5492,2.482,9.3129,0.6461,-0.6026,0.0009
1764313195580,0.8357,2.7679,8.732,0.6461,-0.6026,0.0009
1764313195590,0.8357,2.7679,8.732,0.1655,-0.0079,0.2856
1764313195600,1.8999,3.4409,8.9043,0.1655,-0.0079,0.2856
1764313195610,1.8999,3.4409,8.9043,-0.2592,0.5308,0.2692
1764313195620,1.9364,3.6514,9.7992,-0.2592,0.5308,0.2692
1764313195630,1.9364,3.6514,9.7992,-0.2399,0.8538,0.1495
1764313195640,1.2491,2.9922,10.1061,-0.2399,0.8538,0.1495
1764313195650,1.2491,2.9922,10.1061,-0.0579,1.0899,0.2706
1764313195660,0.8967,3.4092,8.9862,-0.0579,1.0899,0.2706
1764313195670,0.8967,3.4092,8.9862,-0.148,1.035,0.4192
1764313195680,0.8967,3.4092,8.9862,-0.148,1.035,0.4192
1764313195690,1.0445,3.5252,8.4275,-0.3091,0.861,0.4042
1764313195700,0.9954,3.3727,8.7182,-0.3091,0.861,0.4042
1764313195710,0.9954,3.3727,8.7182,-0.3091,0.861,0.4042
1764313195720,0.9954,3.3727,8.7182,-0.2335,0.4299,0.2753
1764313195730,0.8692,3.2411,9.1729,-0.2335,0.4299,0.2753
1764313195740,0.8692,3.2411,9.1729,0.0267,-0.0796,0.1294
1764313195750,0.8632,3.1507,9.5378,0.0267,-0.0796,0.1294
1764313195760,0.8632,3.1507,9.5378,0.2239,-0.3577,0.0197
1764313195770,0.5773,2.9635,9.7454,0.2239,-0.3577,0.0197
1764313195780,0.5773,2.9635,9.7454,0.2498,-0.2482,0.0307
1764313195790,0.4917,2.8989,9.5175,0.2498,-0.2482,0.0307
1764313195800,0.4917,2.8989,9.5175,0.1742,-0.0913,0.0816
1764313195810,0.4068,2.9336,9.2249,0.1742,-0.0913,0.0816
1764313195820,0.4068,2.9336,9.2249,0.1742,-0.0913,0.0816
1764313195830,0.4068,2.9336,9.2249,0.1022,0.0434,0.1312
1764313195840,0.198,2.8457,9.0963,0.1022,0.0434,0.1312
1764313195850,0.2554,2.9222,9.3308,0.0373,0.0189,0.188
1764313195860,0.2554,2.9222,9.3308,0.0373,0.0189,0.188
1764313195870,0.2554,2.9222,9.3308,0.0953,-0.0072,0.2356
1764313195880,0.3619,3.0419,8.8648,0.0953,-0.0072,0.2356
1764313195890,0.3619,3.0419,8.8648,0.0096,-0.0385,0.257
1764313195900,0.2967,3.0694,8.8122,0.0096,-0.0385,0.257
1764313195910,0.2967,3.0694,8.8122,-0.1138,-0.0296,0.3044
1764313195920,0.3338,3.0927,8.7876,-0.1138,-0.0296,0.3044
1764313195930,0.3338,3.0927,8.7876,-0.1964,-0.0431,0.3508
1764313195940,0.4325,2.9049,9.2124,-0.1964,-0.0431,0.3508
1764313195950,0.4325,2.9049,9.2124,-0.1964,-0.0431,0.3508
1764313195960,1.2425,2.7458,10.7521,-0.214,-0.1432,0.3855
1764313195970,1.2425,2.7458,10.7521,-0.214,-0.1432,0.3855
1764313195980,1.2425,2.7458,10.7521,0.0411,-0.073,0.3407
1764313195990,1.5541,2.796,11.1488,0.0411,-0.073,0.3407
1764313196000,1.5541,2.796,11.1488,0.3024,0.1196,0.2721
1764313196010,1.0098,2.8606,10.3143,0.3024,0.1196,0.2721
1764313196020,1.0098,2.8606,10.3143,0.3974,0.1953,0.3236
1764313196030,0.5659,3.1023,9.2566,0.3974,0.1953,0.3236
1764313196040,0.5659,3.1023,9.2566,0.3468,0.0889,0.4091
1764313196050,0.8548,3.35,9.0766,0.3468,0.0889,0.4091
1764313196060,0.8548,3.35,9.0766,0.3175,-0.0409,0.4024
1764313196070,1.1599,3.3835,9.3942,0.3175,-0.0409,0.4024
1764313196080,1.1599,3.3835,9.3942,0.3448,-0.0683,0.334
1764313196090,1.0068,3.0975,9.4409,0.3448,-0.0683,0.334
1764313196100,1.0068,3.0975,9.4409,0.3448,-0.0683,0.334
1764313196110,0.8183,3.009,9.4026,0.3757,-0.0055,0.3732
1764313196120,0.8183,3.009,9.4026,0.3757,-0.0055,0.3732
1764313196130,0.8183,3.009,9.4026,0.3697,0.1374,0.4803
1764313196140,1.1121,3.2656,9.2303,0.3697,0.1374,0.4803
1764313196150,1.1121,3.2656,9.2303,0.339,0.2836,0.4824
1764313196160,1.209,3.5192,8.7117,0.339,0.2836,0.4824
1764313196170,1.209,3.5192,8.7117,0.2735,0.341,0.4087
1764313196180,1.203,3.7107,8.4975,0.2735,0.341,0.4087
1764313196190,1.203,3.7107,8.4975,0.1257,0.3813,0.3464
1764313196200,1.2072,3.6437,9.1418,0.1257,0.3813,0.3464
1764313196210,1.2072,3.6437,9.1418,-0.044,0.6535,0.3218
1764313196220,1.0307,3.478,9.8393,-0.044,0.6535,0.3218
1764313196230,1.0307,3.478,9.8393,-0.044,0.6535,0.3218
1764313196240,0.7687,3.5569,9.7801,-0.0816,0.9557,0.3444
1764313196250,0.7687,3.5569,9.7801,-0.0816,0.9557,0.3444
1764313196260,0.7687,3.5569,9.7801,0.0545,0.8946,0.3703
1764313196270,0.4624,3.5701,9.2853,0.0545,0.8946,0.3703
1764313196280,0.4624,3.5701,9.2853,0.2779,0.504,0.359
1764313196290,-0.137,3.4247,8.8265,0.2779,0.504,0.359
1764313196300,-0.137,3.4247,8.8265,0.4042,0.0883,0.4139
1764313196310,-0.3272,3.3051,9.1059,0.4042,0.0883,0.4139
1764313196320,-0.3272,3.3051,9.1059,0.4197,0.0174,0.5979
1764313196330,-0.0018,3.1555,9.3523,0.4197,0.0174,0.5979
1764313196340,-0.0018,3.1555,9.3523,0.3946,0.1196,0.7408
1764313196350,0.1848,3.2333,9.268,0.3946,0.1196,0.7408
1764313196360,0.1848,3.2333,9.268,0.4633,0.0673,0.7805
1764313196370,0.3619,3.3864,9.1202,0.4633,0.0673,0.7805
1764313196380,0.3619,3.3864,9.1202,0.4633,0.0673,0.7805
1764313196390,0.4373,3.39,9.4289,0.5583,-0.0817,0.7669
1764313196400,0.4373,3.39,9.4289,0.5583,-0.0817,0.7669
1764313196410,0.4373,3.39,9.4289,0.498,0.3508,0.8373
1764313196420,2.0734,3.99,10.5081,0.498,0.3508,0.8373
1764313196430,2.0734,3.99,10.5081,-0.3134,2.662,0.8789
1764313196440,5.9743,5.4736,12.5845,-0.3134,2.662,0.8789
1764313196450,5.9743,5.4736,12.5845,-2.5783,8.1755,0.5822
1764313196460,9.5109,7.9125,11.3629,-2.5783,8.1755,0.5822
1764313196470,9.5109,7.9125,11.3629,-5.4992,14.5267,-0.3343
1764313196480,7.748,7.6319,6.4193,-5.4992,14.5267,-0.3343
1764313196490,7.748,7.6319,6.4193,-6.4768,16.6532,-1.3147
1764313196500,0.667,4.6355,0.7143,-6.4768,16.6532,-1.3147
1764313196510,0.667,4.6355,0.7143,-6.4768,16.6532,-1.3147
1764313196520,0.667,4.6355,0.7143,-4.0823,11.9797,-1.925
1764313196530,-8.7691,2.1422,-4.6002,-4.0823,11.9797,-1.925
1764313196540,-8.7691,2.1422,-4.6002,-0.3288,2.6979,-2.3969
1764313196550,-14.7529,-2.3737,-2.6836,-0.3288,2.6979,-2.3969
1764313196560,-14.7529,-2.3737,-2.6836,1.5446,-3.4438,-1.5204
1764313196570,-12.3027,-5.3426,5.0889,1.5446,-3.4438,-1.5204
1764313196580,-12.3027,-5.3426,5.0889,0.9071,-2.7881,0.0119
1764313196590,-7.194,-2.3653,7.2885,0.9071,-2.7881,0.0119
1764313196600,-7.194,-2.3653,7.2885,-0.5206,-0.0883,0.1721
1764313196610,-6.6341,-0.5994,5.4927,-0.5206,-0.0883,0.1721
1764313196620,-6.6341,-0.5994,5.4927,-1.014,0.3554,-0.3632
1764313196630,-9.4678,-1.3896,5.4479,-1.014,0.3554,-0.3632
1764313196640,-9.4678,-1.3896,5.4479,-1.014,0.3554,-0.3632
1764313196650,-9.4678,-1.3896,5.4479,-0.4325,-0.7952,-0.4636
1764313196660,-10.7821,-2.1793,6.2913,-0.4325,-0.7952,-0.4636
1764313196670,-10.7821,-2.1793,6.2913,0.2259,-1.6747,-0.0886
1764313196680,-9.8237,-1.8012,6.2644,0.2259,-1.6747,-0.0886
1764313196690,-9.8237,-1.8012,6.2644,0.5334,-1.9966,0.2136
1764313196700,-8.9396,-0.8106,4.9023,0.5334,-1.9966,0.2136
1764313196710,-8.9396,-0.8106,4.9023,0.6144,-2.7952,0.2196
1764313196720,-9.2459,-0.8776,4.0917,0.6144,-2.7952,0.2196
1764313196730,-9.2459,-0.8776,4.0917,0.9914,-4.6158,0.29
1764313196740,-8.6967,-1.4758,4.5817,0.9914,-4.6158,0.29
1764313196750,-8.6967,-1.4758,4.5817,1.678,-7.146,0.5421
1764313196760,-4.8574,-1.5206,9.7274,1.678,-7.146,0.5421
1764313196770,-4.8574,-1.5206,9.7274,1.678,-7.146,0.5421
1764313196780,-4.8574,-1.5206,9.7274,2.7382,-8.3227,0.6579
1764313196790,-1.5601,-0.1358,14.6746,2.7382,-8.3227,0.6579
1764313196800,-1.5601,-0.1358,14.6746,3.5059,-6.8027,0.565
1764313196810,-1.1085,0.7914,12.5366,3.5059,-6.8027,0.565
1764313196820,-1.1085,0.7914,12.5366,3.1091,-4.6603,0.6364
1764313196830,-0.798,1.9765,10.0086,3.1091,-4.6603,0.6364
1764313196840,-0.798,1.9765,10.0086,2.0337,-2.4697,0.8346
1764313196850,0.1657,3.1741,8.4,2.0337,-2.4697,0.8346
1764313196860,0.1657,3.1741,8.4,0.8002,-0.5614,0.9479
1764313196870,1.2568,3.667,7.7085,0.8002,-0.5614,0.9479
1764313196880,1.2568,3.667,7.7085,-0.0971,0.5452,0.8016
1764313196890,1.5494,3.655,7.5392,-0.0971,0.5452,0.8016
1764313196900,1.5494,3.655,7.5392,-0.3797,0.6307,0.4519
1764313196910,0.8913,3.2435,7.6319,-0.3797,0.6307,0.4519
1764313196920,0.8913,3.2435,7.6319,-0.3797,0.6307,0.4519
1764313196930,0.8913,3.2435,7.6319,-0.248,0.0747,0.1797
1764313196940,-0.1836,2.4132,8.6172,-0.248,0.0747,0.1797
1764313196950,-0.1836,2.4132,8.6172,-0.0525,-0.2135,0.1729
1764313196960,-0.67,1.6355,9.2698,-0.0525,-0.2135,0.1729
1764313196970,-0.67,1.6355,9.2698,-0.0002,-0.1778,0.449
1764313196980,-0.0431,2.2839,9.5007,-0.0002,-0.1778,0.449
1764313196990,-0.0431,2.2839,9.5007,-0.1089,-0.0272,0.5678
1764313197000,0.8088,2.5573,10.1348,-0.1089,-0.0272,0.5678
1764313197010,0.8088,2.5573,10.1348,-0.1776,0.3297,0.4852
1764313197020,1.1007,3.0544,10.1731,-0.1776,0.3297,0.4852
1764313197030,1.1007,3.0544,10.1731,-0.2225,0.4876,0.2958
1764313197040,0.8393,3.2082,10.0989,-0.2225,0.4876,0.2958
1764313197050,0.8393,3.2082,10.0989,-0.2225,0.4876,0.2958
1764313197060,0.329,3.1202,9.7837,-0.1637,0.5098,0.0982
1764313197070,0.329,3.1202,9.7837,-0.1637,0.5098,0.0982
1764313197080,0.329,3.1202,9.7837,-0.0547,0.3285,-0.035
1764313197090,-0.0239,2.7278,9.6802,-0.0547,0.3285,-0.035
1764313197100,-0.0239,2.7278,9.6802,0.0903,0.0898,-0.1042
1764313197110,-0.2548,2.6142,9.6221,0.0903,0.0898,-0.1042
1764313197120,-0.2548,2.6142,9.6221,0.1962,-0.1145,-0.1449
1764313197130,-0.2931,2.5519,9.6299,0.1962,-0.1145,-0.1449
1764313197140,-0.2931,2.5519,9.6299,0.1828,-0.1089,-0.1565
1764313197150,-0.5438,2.4808,9.4708,0.1828,-0.1089,-0.1565
1764313197160,-0.5438,2.4808,9.4708,0.0695,0.0675,-0.1327
1764313197170,-0.7908,2.4485,9.5198,0.0695,0.0675,-0.1327
1764313197180,-0.7908,2.4485,9.5198,0.0695,0.0675,-0.1327
1764313197190,-0.8357,2.348,9.6066,-0.0266,0.1431,-0.0802
1764313197200,-0.8357,2.348,9.6066,-0.0266,0.1431,-0.0802
1764313197210,-0.8357,2.348,9.6066,0.0593,0.1188,-0.0573
1764313197220,-0.9523,2.4849,8.8295,0.0593,0.1188,-0.0573
1764313197230,-0.9523,2.4849,8.8295,0.0702,-0.1176,-0.0582
1764313197240,-0.8901,2.4299,8.7206,0.0702,-0.1176,-0.0582
1764313197250,-0.8901,2.4299,8.7206,0.0312,-0.3015,-0.0551
1764313197260,-0.4941,2.5472,9.1872,0.0312,-0.3015,-0.0551
1764313197270,-0.4941,2.5472,9.1872,-0.042,-0.1822,-0.0773
1764313197280,0.0365,2.4616,9.9075,-0.042,-0.1822,-0.0773
1764313197290,0.0365,2.4616,9.9075,-0.064,0.0087,-0.1535
1764313197300,0.1759,2.5717,10.5751,-0.064,0.0087,-0.1535
1764313197310,0.1759,2.5717,10.5751,0.0898,0.1249,-0.2796
1764313197320,0.1759,2.5717,10.5751,0.0898,0.1249,-0.2796
1764313197330,0.1759,2.5717,10.5751,0.0898,0.1249,-0.2796
