Timestamp,ax,ay,az,gx,gy,gz
1764313078980,4.5284,4.2006,7.7862,0.6185,-0.847,-0.3196
1764313078990,3.6736,4.2179,7.2826,0.6185,-0.847,-0.3196
1764313079000,3.6736,4.2179,7.2826,0.7619,-1.1935,-0.2683
1764313079010,2.6094,3.6861,7.5739,0.7619,-1.1935,-0.2683
1764313079020,2.6094,3.6861,7.5739,0.8596,-1.0114,0.1434
1764313079030,3.6323,4.0487,6.7155,0.8596,-1.0114,0.1434
1764313079040,3.6323,4.0487,6.7155,0.794,-1.0606,0.3012
1764313079050,4.1366,4.4524,6.8818,0.794,-1.0606,0.3012
1764313079060,4.1366,4.4524,6.8818,0.9975,-1.1458,0.2555
1764313079070,4.4375,4.6008,6.2225,0.9975,-1.1458,0.2555
1764313079080,4.4375,4.6008,6.2225,0.9975,-1.1458,0.2555
1764313079090,4.7474,5.0297,6.073,1.1467,-1.2031,0.2191
1764313079100,4.7474,5.0297,6.073,1.1467,-1.2031,0.2191
1764313079110,7.0493,5.4826,7.3669,0.5261,0.015,0.3963
1764313079120,7.0493,5.4826,7.3669,0.5261,0.015,0.3963
1764313079130,7.0493,5.4826,7.3669,-1.3182,3.6553,0.662
1764313079140,12.1926,7.7785,9.3673,-1.3182,3.6553,0.662
1764313079150,12.1926,7.7785,9.3673,-4.4512,10.5389,0.2669
1764313079160,16.4865,10.2808,8.2343,-4.4512,10.5389,0.2669
1764313079170,16.4865,10.2808,8.2343,-8.1833,19.2937,-0.8016
1764313079180,14.5472,9.9171,0.5216,-8.1833,19.2937,-0.8016
1764313079190,14.5472,9.9171,0.5216,-9.416,22.4917,-2.1296
1764313079200,2.9049,3.4056,-6.6999,-9.416,22.4917,-2.1296
1764313079210,2.9049,3.4056,-6.6999,-5.7117,14.6777,-2.8489
1764313079220,-12.1424,-2.4658,-7.9502,-5.7117,14.6777,-2.8489
1764313079230,-12.1424,-2.4658,-7.9502,-5.7117,14.6777,-2.8489
1764313079240,-12.1424,-2.4658,-7.9502,-0.1576,1.6185,-2.8204
1764313079250,-17.2092,-7.0666,-0.5755,-0.1576,1.6185,-2.8204
1764313079260,-17.2092,-7.0666,-0.5755,1.9192,-4.4938,-1.2196
1764313079270,-11.5496,-6.5695,7.3926,1.9192,-4.4938,-1.2196
1764313079280,-11.5496,-6.5695,7.3926,0.4858,-2.583,0.0441
1764313079290,-7.0002,-3.1729,7.9346,0.4858,-2.583,0.0441
1764313079300,-7.0002,-3.1729,7.9346,0.4858,-2.583,0.0441
1764313079310,-8.4431,-2.8989,9.1902,-0.7123,-1.2495,-0.2068
1764313079320,-8.4431,-2.8989,9.1902,0.4255,-3.3682,-0.4644
1764313079330,-10.52,-3.935,9.8142,0.4255,-3.3682,-0.4644
1764313079340,-10.52,-3.935,9.8142,2.3844,-6.4985,-0.0728
1764313079350,-8.8235,-2.9928,8.3498,2.3844,-6.4985,-0.0728
1764313079360,-8.8235,-2.9928,8.3498,2.3844,-6.4985,-0.0728
1764313079370,-2.9462,-0.0078,8.053,4.0435,-9.8164,0.3085
1764313079380,-2.9462,-0.0078,8.053,4.0435,-9.8164,0.3085
1764313079390,-2.9462,-0.0078,8.053,5.5955,-12.8486,0.0286
1764313079400,2.6608,2.482,11.0608,5.5955,-12.8486,0.0286
1764313079410,2.6608,2.482,11.0608,6.2221,-12.6223,-0.3647
1764313079420,5.2863,3.2961,13.2909,6.2221,-12.6223,-0.3647
1764313079430,5.2863,3.2961,13.2909,4.9356,-8.3971,-0.3488
1764313079440,5.2439,2.9163,11.2511,4.9356,-8.3971,-0.3488
1764313079450,5.2439,2.9163,11.2511,3.0452,-3.748,0.1135
1764313079460,5.869,4.5194,7.879,3.0452,-3.748,0.1135
1764313079470,5.869,4.5194,7.879,1.1272,-0.1069,0.3764
1764313079480,6.4762,5.2816,5.601,1.1272,-0.1069,0.3764
1764313079490,6.4762,5.2816,5.601,1.1272,-0.1069,0.3764
1764313079500,6.4762,5.2816,5.601,-0.256,1.7171,0.1382
1764313079510,5.1003,4.8018,4.8335,-0.256,1.7171,0.1382
1764313079520,5.1003,4.8018,4.8335,-0.2831,0.9997,-0.2071
1764313079530,3.1717,3.5402,6.4923,-0.2831,0.9997,-0.2071
1764313079540,3.1717,3.5402,6.4923,0.3653,-0.0211,-0.1985
1764313079550,2.985,3.2237,7.4213,0.3653,-0.0211,-0.1985
1764313079560,2.985,3.2237,7.4213,0.5034,0.0409,-0.0031
1764313079570,3.7316,3.3625,6.7496,0.5034,0.0409,-0.0031
1764313079580,3.7316,3.3625,6.7496,0.0753,0.5825,0.1582
1764313079590,5.3294,3.9494,6.8225,0.0753,0.5825,0.1582
1764313079600,5.3294,3.9494,6.8225,-0.4459,1.2208,0.0263
1764313079610,4.9998,3.9972,7.6391,-0.4459,1.2208,0.0263
1764313079620,4.9998,3.9972,7.6391,-0.5698,1.4891,-0.0825
1764313079630,4.9998,3.9972,7.6391,-0.5698,1.4891,-0.0825
1764313079640,2.4586,2.662,7.7492,-0.5698,1.4891,-0.0825
1764313079650,2.4586,2.662,7.7492,-0.3512,1.2052,0.2465
1764313079660,2.1027,3.5575,6.7621,-0.3512,1.2052,0.2465
1764313079670,2.1027,3.5575,6.7621,-0.2286,0.4934,0.5844
1764313079680,3.39,4.2197,6.9069,-0.2286,0.4934,0.5844
1764313079690,3.39,4.2197,6.9069,-0.1666,-0.243,0.5006
1764313079700,4.669,4.057,8.345,-0.1666,-0.243,0.5006
1764313079710,4.669,4.057,8.345,-0.0373,-0.4062,0.2589
1764313079720,5.1972,4.1731,9.1519,-0.0373,-0.4062,0.2589
1764313079730,5.1972,4.1731,9.1519,-0.0373,-0.4062,0.2589
1764313079740,5.1972,4.1731,9.1519,0.0728,-0.2335,-0.0069
1764313079750,4.7539,3.9254,8.9767,0.0629,0.0089,-0.1208
1764313079760,3.9972,3.682,8.5011,0.0629,0.0089,-0.1208
1764313079770,3.9972,3.682,8.5011,0.0629,0.0089,-0.1208
1764313079780,3.9972,3.682,8.5011,0.0174,0.1231,-0.082
1764313079790,3.5204,3.7537,8.2828,0.0174,0.1231,-0.082
1764313079800,3.5204,3.7537,8.2828,-0.0208,0.1428,0.0017
1764313079810,3.7107,3.7232,8.2265,-0.0208,0.1428,0.0017
1764313079820,3.7107,3.7232,8.2265,-0.0347,0.1497,0.0156
1764313079830,4.2269,3.9464,8.5502,-0.0347,0.1497,0.0156
1764313079840,4.2269,3.9464,8.5502,-0.0347,0.1497,0.0156
1764313079850,3.9924,3.7962,8.5854,0.0079,0.1135,-0.093
1764313079860,3.9924,3.7962,8.5854,0.0863,0.098,-0.137
1764313079870,3.9924,3.7962,8.5854,0.0863,0.098,-0.137
1764313079880,3.3434,3.7184,8.147,0.0863,0.098,-0.137
1764313079890,3.3434,3.7184,8.147,0.0052,0.1037,-0.08
1764313079900,3.1346,3.5587,8.2744,0.0052,0.1037,-0.08
1764313079910,3.1346,3.5587,8.2744,0.0519,-0.0231,-0.0174
1764313079920,3.2925,3.6018,8.4239,0.0519,-0.0231,-0.0174
1764313079930,3.2925,3.6018,8.4239,0.1607,-0.089,0.0165
1764313079940,3.3129,3.4869,7.9693,0.1607,-0.089,0.0165
1764313079950,3.3129,3.4869,7.9693,0.12,-0.1665,0.0451
1764313079960,3.7771,3.8219,8.2038,0.12,-0.1665,0.0451
1764313079970,3.7771,3.8219,8.2038,0.0704,-0.135,-0.0137
1764313079980,3.6383,3.7932,8.0746,0.0704,-0.135,-0.0137
1764313079990,3.6383,3.7932,8.0746,-0.0412,-0.0487,-0.0399
1764313080000,3.9846,3.9559,8.8247,-0.0412,-0.0487,-0.0399
1764313080010,3.9846,3.9559,8.8247,-0.0392,0.0531,-0.0976
1764313080020,3.7172,3.463,9.3224,-0.0392,0.0531,-0.0976
1764313080030,3.7172,3.463,9.3224,-0.0392,0.0531,-0.0976
1764313080040,3.2794,3.6754,8.2869,0.1643,0.2083,-0.0673
1764313080050,3.2794,3.6754,8.2869,0.1643,0.2083,-0.0673
1764313080060,3.2794,3.6754,8.2869,0.2902,-0.1216,-0.0353
1764313080070,3.746,4.063,7.8849,0.2902,-0.1216,-0.0353
1764313080080,3.746,4.063,7.8849,0.3592,-0.4609,-0.1254
1764313080090,4.0947,3.8542,8.735,0.3592,-0.4609,-0.1254
1764313080100,4.0947,3.8542,8.735,0.4795,-0.4864,-0.2063
1764313080110,3.5797,3.3769,9.2554,0.4795,-0.4864,-0.2063
1764313080120,3.5797,3.3769,9.2554,0.6474,-0.5599,-0.1127
1764313080130,3.7107,3.9278,8.455,0.6474,-0.5599,-0.1127
1764313080140,3.7107,3.9278,8.455,0.9064,-1.0875,-0.1208
1764313080150,3.3595,4.084,7.8425,0.9064,-1.0875,-0.1208
1764313080160,3.3595,4.084,7.8425,0.9064,-1.0875,-0.1208
1764313080170,1.5392,3.5713,8.5023,1.2489,-1.8303,-0.1533
1764313080180,1.5392,3.5713,8.5023,1.2489,-1.8303,-0.1533
1764313080190,1.5392,3.5713,8.5023,1.5498,-1.6976,0.2992
1764313080200,4.6612,4.2371,7.7719,1.5498,-1.6976,0.2992
1764313080210,4.6612,4.2371,7.7719,1.3547,-1.3147,0.3761
1764313080220,5.3486,5.0213,7.3843,1.3547,-1.3147,0.3761
1764313080230,5.3486,5.0213,7.3843,1.1971,-0.7785,0.2714
1764313080240,5.5149,5.4078,5.537,1.1971,-0.7785,0.2714
1764313080250,5.5149,5.4078,5.537,1.0916,-1.0672,0.0994
1764313080260,5.2199,5.3725,5.4592,1.0916,-1.0672,0.0994
1764313080270,5.2199,5.3725,5.4592,1.1829,-1.5372,0.0469
1764313080280,5.476,5.199,6.2722,1.1829,-1.5372,0.0469
1764313080290,5.476,5.199,6.2722,1.1199,-1.272,0.0825
1764313080300,5.8612,5.4748,5.7972,1.1199,-1.272,0.0825
1764313080310,5.8612,5.4748,5.7972,1.1199,-1.272,0.0825
1764313080320,6.0281,5.6201,5.1476,0.8567,-0.7231,0.0901
1764313080330,6.0281,5.6201,5.1476,0.8567,-0.7231,0.0901
1764313080340,6.0281,5.6201,5.1476,0.3905,0.0622,0.1011
1764313080350,6.1125,5.8433,4.7551,0.3905,0.0622,0.1011
1764313080360,6.1125,5.8433,4.7551,-0.3186,1.2895,0.1275
1764313080370,6.7747,6.0987,5.6249,-0.3186,1.2895,0.1275
1764313080380,6.7747,6.0987,5.6249,-1.4682,3.8156,0.201
1764313080390,9.6317,7.0606,7.6828,-1.4682,3.8156,0.201
1764313080400,9.6317,7.0606,7.6828,-3.9227,9.6171,0.1626
1764313080410,15.9984,11.1332,7.2514,-3.9227,9.6171,0.1626
1764313080420,15.9984,11.1332,7.2514,-7.9515,18.8265,-0.8775
1764313080430,15.277,10.2784,-1.1928,-7.9515,18.8265,-0.8775
1764313080440,15.277,10.2784,-1.1928,-7.9515,18.8265,-0.8775
1764313080450,15.277,10.2784,-1.1928,-9.8203,23.297,-2.5618
1764313080460,1.1073,3.1651,-9.2967,-9.8203,23.297,-2.5618
1764313080470,1.1073,3.1651,-9.2967,-6.5181,15.3336,-2.939
1764313080480,-12.3458,-1.8263,-9.7687,-6.5181,15.3336,-2.939
1764313080490,-12.3458,-1.8263,-9.7687,-0.8112,1.0912,-2.8285
1764313080500,-14.9851,-6.521,4.0181,-0.8112,1.0912,-2.8285
1764313080510,-14.9851,-6.521,4.0181,2.0953,-4.7828,-1.4505
1764313080520,-9.9781,-6.119,12.3697,2.0953,-4.7828,-1.4505
1764313080530,-9.9781,-6.119,12.3697,0.8438,-1.3497,-0.3041
1764313080540,-7.3155,-2.452,7.3352,0.8438,-1.3497,-0.3041
1764313080550,-7.3155,-2.452,7.3352,-1.0362,0.7859,-0.3134
1764313080560,-9.3781,-2.1661,6.3141,-1.0362,0.7859,-0.3134
1764313080570,-9.3781,-2.1661,6.3141,-0.5886,-1.2182,-0.3158
1764313080580,-10.5153,-2.7147,8.5884,-0.5886,-1.2182,-0.3158
1764313080590,-10.5153,-2.7147,8.5884,-0.5886,-1.2182,-0.3158
1764313080600,-10.5153,-2.7147,8.5884,1.1845,-4.284,0.0206
1764313080610,-9.338,-2.4586,7.8305,1.1845,-4.284,0.0206
1764313080620,-9.338,-2.4586,7.8305,2.6421,-7.1934,0.4184
1764313080630,-5.5484,-0.8818,7.1964,2.6421,-7.1934,0.4184
1764313080640,-5.5484,-0.8818,7.1964,3.7742,-9.8587,0.4241
1764313080650,0.0796,1.7115,9.2536,3.7742,-9.8587,0.4241
1764313080660,0.0796,1.7115,9.2536,4.3888,-10.9505,-0.0637
1764313080670,2.796,2.6082,12.524,4.3888,-10.9505,-0.0637
1764313080680,2.796,2.6082,12.524,4.6383,-10.0901,-0.451
1764313080690,2.3611,2.1565,12.8818,4.6383,-10.0901,-0.451
1764313080700,2.3611,2.1565,12.8818,4.4885,-8.0294,-0.098
1764313080710,2.3611,2.1565,12.8818,4.4885,-8.0294,-0.098
1764313080720,3.3727,3.213,10.6277,4.4885,-8.0294,-0.098
1764313080730,3.3727,3.213,10.6277,3.281,-4.8616,0.3804
1764313080740,6.2261,4.7713,8.4927,3.281,-4.8616,0.3804
1764313080750,6.2261,4.7713,8.4927,1.1956,-0.8619,0.3366
1764313080760,6.9763,5.3294,6.1992,1.1956,-0.8619,0.3366
1764313080770,6.9763,5.3294,6.1992,-0.2737,1.2431,0.0005
1764313080780,4.9328,4.8401,5.2582,-0.2737,1.2431,0.0005
1764313080790,4.9328,4.8401,5.2582,-0.3948,0.8653,-0.2963
1764313080800,3.0209,3.5779,6.1238,-0.3948,0.8653,-0.2963
1764313080810,3.0209,3.5779,6.1238,0.2144,-0.4588,-0.2385
1764313080820,2.9444,3.1932,7.6014,0.2144,-0.4588,-0.2385
1764313080830,2.9444,3.1932,7.6014,0.5789,-0.7992,-0.056
1764313080840,3.8303,3.2124,7.4812,0.5789,-0.7992,-0.056
1764313080850,3.8303,3.2124,7.4812,0.5789,-0.7992,-0.056
1764313080860,3.8303,3.2124,7.4812,0.2414,-0.1652,0.1203
1764313080870,5.0124,3.6532,7.1928,0.2414,-0.1652,0.1203
1764313080880,5.0124,3.6532,7.1928,-0.2847,0.5137,0.1121
1764313080890,5.6375,4.1719,7.4148,-0.2847,0.5137,0.1121
1764313080900,5.6375,4.1719,7.4148,-0.5666,0.952,-0.0544
1764313080910,3.7053,3.283,7.5948,-0.5666,0.952,-0.0544
1764313080920,3.7053,3.283,7.5948,-0.4676,1.0664,0.0263
1764313080930,2.4628,3.9099,6.9936,-0.4676,1.0664,0.0263
1764313080940,2.4628,3.9099,6.9936,-0.3902,0.4139,0.3499
1764313080950,3.4283,3.8219,8.0064,-0.3902,0.4139,0.3499
1764313080960,3.4283,3.8219,8.0064,-0.1448,-0.082,0.3932
1764313080970,3.4283,3.8219,8.0064,-0.1448,-0.082,0.3932
1764313080980,4.7055,3.9039,9.0054,-0.1448,-0.082,0.3932
1764313080990,5.1416,4.017,8.9617,0.0328,-0.0499,0.2706
1764313081000,5.1416,4.017,8.9617,0.0328,-0.0499,0.2706
1764313081010,5.1416,4.017,8.9617,0.0012,0.2523,0.1035
1764313081020,4.9101,4.1348,8.3635,0.0012,0.2523,0.1035
1764313081030,4.9101,4.1348,8.3635,-0.1663,0.5208,-0.0296
1764313081040,4.3466,4.0277,8.2301,-0.1663,0.5208,-0.0296
1764313081050,4.3466,4.0277,8.2301,-0.1878,0.4707,-0.0927
1764313081060,3.8076,3.8937,8.2965,-0.1878,0.4707,-0.0927
1764313081070,3.8076,3.8937,8.2965,-0.066,0.2489,-0.0983
1764313081080,3.4905,3.6814,8.2026,-0.066,0.2489,-0.0983
1764313081090,3.4905,3.6814,8.2026,0.0267,0.0673,-0.0573
1764313081100,3.8602,3.6341,8.4275,0.0267,0.0673,-0.0573
1764313081110,3.8602,3.6341,8.4275,0.0267,0.0673,-0.0573
1764313081120,4.0074,3.4516,8.3366,0.0142,0.177,-0.0279
1764313081130,4.0074,3.4516,8.3366,0.0142,0.177,-0.0279
1764313081140,4.0074,3.4516,8.3366,-0.1153,0.4933,-0.0185
1764313081150,3.7938,3.4439,8.062,-0.1153,0.4933,-0.0185
1764313081160,3.7938,3.4439,8.062,-0.2228,0.6095,-0.0287
1764313081170,3.1364,3.4445,8.2134,-0.2228,0.6095,-0.0287
1764313081180,3.1364,3.4445,8.2134,-0.1564,0.3888,-0.0185
1764313081190,2.796,3.326,8.3731,-0.1564,0.3888,-0.0185
1764313081200,2.796,3.326,8.3731,0.014,0.137,0.0371
1764313081210,2.9324,3.4582,8.1338,0.014,0.137,0.0371
1764313081220,2.9324,3.4582,8.1338,0.0338,-0.0072,0.0661
1764313081230,3.2243,3.4744,8.2014,0.0338,-0.0072,0.0661
1764313081240,3.2243,3.4744,8.2014,0.0338,-0.0072,0.0661
1764313081250,3.3673,3.4205,8.2995,-0.0283,0.0693,0.0683
1764313081260,3.3673,3.4205,8.2995,-0.0283,0.0693,0.0683
1764313081270,3.6245,3.5785,8.659,-0.1497,0.2046,0.0786
1764313081280,3.6245,3.5785,8.659,-0.1497,0.2046,0.0786
1764313081290,3.6245,3.5785,8.659,-0.2175,0.3662,0.0405
1764313081300,3.4181,3.4229,8.7446,-0.2175,0.3662,0.0405
1764313081310,3.4181,3.4229,8.7446,-0.1932,0.3102,0.0238
1764313081320,3.3434,3.5904,8.6255,-0.1932,0.3102,0.0238
1764313081330,3.3434,3.5904,8.6255,-0.0519,-0.0353,-0.0186
1764313081340,3.4253,3.7214,8.7733,-0.0519,-0.0353,-0.0186
1764313081350,3.4253,3.7214,8.7733,0.0922,-0.2996,-0.0764
1764313081360,3.3488,3.463,9.0891,0.0922,-0.2996,-0.0764
1764313081370,3.3488,3.463,9.0891,0.1364,-0.2063,-0.0496
1764313081380,3.1908,3.1986,9.0461,0.1364,-0.2063,-0.0496
1764313081390,3.1908,3.1986,9.0461,0.1364,-0.2063,-0.0496
1764313081400,3.3751,3.3709,8.549,0.1122,0.0124,0.0652
1764313081410,3.3751,3.3709,8.549,0.1122,0.0124,0.0652
1764313081420,3.3751,3.3709,8.549,0.0654,0.037,0.0962
1764313081430,3.5402,3.5833,8.3043,0.0654,0.037,0.0962
1764313081440,3.5402,3.5833,8.3043,0.0814,-0.089,0.0505
1764313081450,3.7077,3.7502,8.2851,0.0814,-0.089,0.0505
1764313081460,3.7077,3.7502,8.2851,0.0829,-0.1819,-0.0096
1764313081470,3.6191,3.5617,8.5771,0.0829,-0.1819,-0.0096
1764313081480,3.6191,3.5617,8.5771,0.0883,-0.1077,-0.0186
1764313081490,3.5719,3.5474,8.7805,0.0883,-0.1077,-0.0186
1764313081500,3.5719,3.5474,8.7805,0.0684,0.0394,0.0197
1764313081510,3.6341,3.5892,8.6381,0.0684,0.0394,0.0197
1764313081520,3.6341,3.5892,8.6381,0.0684,0.0394,0.0197
1764313081530,3.7364,3.6838,8.5729,0.0052,0.1545,0.0168
1764313081540,3.7364,3.6838,8.5729,0.0052,0.1545,0.0168
1764313081550,3.7364,3.6838,8.5729,0.0263,0.0551,-0.0406
1764313081560,3.3721,3.4678,8.6285,0.0263,0.0551,-0.0406
1764313081570,3.3721,3.4678,8.6285,0.1112,-0.0846,-0.0389
1764313081580,3.4247,3.5061,8.7709,0.1112,-0.0846,-0.0389
1764313081590,3.4247,3.5061,8.7709,0.2149,-0.1797,-0.0467
1764313081600,3.5222,3.4684,8.9186,0.2149,-0.1797,-0.0467
1764313081610,3.5222,3.4684,8.9186,0.2957,-0.0732,-0.0348
1764313081620,3.6257,3.7585,8.2469,0.2957,-0.0732,-0.0348
1764313081630,3.6257,3.7585,8.2469,0.2071,0.0186,-0.0568
1764313081640,3.5539,3.8046,8.0046,0.2071,0.0186,-0.0568
1764313081650,3.5539,3.8046,8.0046,0.0855,0.0353,-0.0739
1764313081660,3.5539,3.8046,8.0046,0.0855,0.0353,-0.0739
1764313081670,3.5019,3.9039,8.1105,0.0855,0.0353,-0.0739
1764313081680,3.5019,3.9039,8.1105,0.0377,-0.0202,-0.1191
1764313081690,3.3577,3.7507,8.4975,0.0377,-0.0202,-0.1191
1764313081700,3.3577,3.7507,8.4975,0.0589,0.0023,-0.102
1764313081710,3.1519,3.5874,8.5699,0.0589,0.0023,-0.102
1764313081720,3.1519,3.5874,8.5699,0.0895,0.0321,-0.0287
1764313081730,3.3338,3.7346,8.4736,0.0895,0.0321,-0.0287
1764313081740,3.3338,3.7346,8.4736,0.1367,-0.0609,-0.0246
1764313081750,3.6622,4.0265,8.1547,0.1367,-0.0609,-0.0246
1764313081760,3.6622,4.0265,8.1547,0.142,-0.1684,-0.1338
1764313081770,3.615,3.9613,8.3186,0.142,-0.1684,-0.1338
1764313081780,3.615,3.9613,8.3186,0.1093,-0.1196,-0.1718
1764313081790,3.5874,3.883,8.4371,0.1093,-0.1196,-0.1718
1764313081800,3.5874,3.883,8.4371,0.1093,-0.1196,-0.1718
1764313081810,3.5874,3.883,8.4371,0.0415,0.0583,-0.1643
1764313081820,3.7759,4.1186,8.217,0.0415,0.0583,-0.1643
1764313081830,3.7759,4.1186,8.217,-0.0295,0.0719,-0.2462
1764313081840,4.0199,4.2323,8.0937,-0.0295,0.0719,-0.2462
1764313081850,4.0199,4.2323,8.0937,0.0354,-0.19,-0.4536
1764313081860,2.6512,3.7681,8.3689,0.0354,-0.19,-0.4536
1764313081870,2.6512,3.7681,8.3689,0.4215,-0.5782,-0.4522
1764313081880,2.3085,3.2716,8.6955,0.4215,-0.5782,-0.4522
1764313081890,2.3085,3.2716,8.6955,0.6584,-0.5403,-0.1225
1764313081900,2.8923,3.6084,8.5184,0.6584,-0.5403,-0.1225
1764313081910,2.8923,3.6084,8.5184,0.5266,-0.1701,0.0344
1764313081920,2.8319,3.798,9.1992,0.5266,-0.1701,0.0344
1764313081930,2.8319,3.798,9.1992,0.5266,-0.1701,0.0344
1764313081940,4.4662,4.0666,10.4022,0.1245,1.2856,0.2889
1764313081950,4.4662,4.0666,10.4022,0.1245,1.2856,0.2889
1764313081960,4.4662,4.0666,10.4022,-1.2825,5.039,0.5551
1764313081970,8.6369,6.0096,11.406,-1.2825,5.039,0.5551
1764313081980,8.6369,6.0096,11.406,-4.1988,11.6652,0.3564
1764313081990,11.7739,8.2822,9.2973,-4.1988,11.6652,0.3564
1764313082000,11.7739,8.2822,9.2973,-7.1404,17.9506,-0.5059
1764313082010,11.3001,8.5537,5.2893,-7.1404,17.9506,-0.5059
1764313082020,11.3001,8.5537,5.2893,-7.1801,19.435,-1.9256
1764313082030,2.01,4.1049,-4.5434,-7.1801,19.435,-1.9256
1764313082040,2.01,4.1049,-4.5434,-3.3391,11.6115,-3.0062
1764313082050,-10.5823,0.4463,-11.6195,-3.3391,11.6115,-3.0062
1764313082060,-10.5823,0.4463,-11.6195,-3.3391,11.6115,-3.0062
1764313082070,-10.5823,0.4463,-11.6195,0.5105,-0.0336,-3.3393
1764313082080,-15.8106,-6.4732,-3.5091,0.5105,-0.0336,-3.3393
1764313082090,-15.8106,-6.4732,-3.5091,0.9401,-4.6016,-1.6373
1764313082100,-12.4008,-7.2897,6.5216,0.9401,-4.6016,-1.6373
1764313082110,-12.4008,-7.2897,6.5216,0.1216,-3.4977,-0.1005
1764313082120,-7.7928,-3.6323,6.8118,0.1216,-3.4977,-0.1005
1764313082130,-7.7928,-3.6323,6.8118,-0.0657,-3.6582,-0.2283
1764313082140,-8.4658,-3.3535,6.454,-0.0657,-3.6582,-0.2283
1764313082150,-8.4658,-3.3535,6.454,0.8841,-6.2818,-0.4045
1764313082160,-8.3833,-3.6371,7.9968,0.8841,-6.2818,-0.4045
1764313082170,-8.3833,-3.6371,7.9968,2.7414,-9.9948,-0.1614
1764313082180,-4.6564,-2.5172,11.4102,2.7414,-9.9948,-0.1614
1764313082190,-4.6564,-2.5172,11.4102,2.7414,-9.9948,-0.1614
1764313082200,1.2843,0.7214,13.133,5.05,-12.6907,-0.0038
1764313082210,1.2843,0.7214,13.133,5.05,-12.6907,-0.0038
1764313082220,1.2843,0.7214,13.133,6.2424,-12.6284,-0.3305
1764313082230,3.3547,2.7278,11.4006,6.2424,-12.6284,-0.3305
1764313082240,3.3547,2.7278,11.4006,5.472,-10.1744,-0.37
1764313082250,4.002,2.9671,10.5314,5.472,-10.1744,-0.37
1764313082260,4.002,2.9671,10.5314,3.3914,-5.9746,0.1741
1764313082270,5.9599,3.8172,10.0881,3.3914,-5.9746,0.1741
1764313082280,5.9599,3.8172,10.0881,1.0739,-1.3086,0.5307
1764313082290,7.4339,4.5051,8.5059,1.0739,-1.3086,0.5307
1764313082300,7.4339,4.5051,8.5059,-0.3659,1.2617,0.2689
1764313082310,6.347,4.6355,7.1725,-0.3659,1.2617,0.2689
1764313082320,6.347,4.6355,7.1725,-0.0501,0.4749,-0.3044
1764313082330,4.5368,3.6,7.7115,-0.0501,0.4749,-0.3044
1764313082340,4.5368,3.6,7.7115,-0.0501,0.4749,-0.3044
1764313082350,3.3835,2.7386,8.7099,1.1576,-1.3196,-0.5957
1764313082360,3.3835,2.7386,8.7099,1.1576,-1.3196,-0.5957
1764313082370,3.3835,2.7386,8.7099,1.5511,-1.3824,-0.3557
1764313082380,3.2339,2.6022,7.4859,1.5511,-1.3824,-0.3557
1764313082390,3.2339,2.6022,7.4859,0.8839,-0.1684,0.1402
1764313082400,3.8638,2.9767,6.1513,0.8839,-0.1684,0.1402
1764313082410,3.8638,2.9767,6.1513,-0.0055,0.905,0.4615
1764313082420,5.065,3.9308,5.6979,-0.0055,0.905,0.4615
1764313082430,5.065,3.9308,5.6979,-0.3018,0.8378,0.3459
1764313082440,5.2289,4.1186,5.9821,-0.3018,0.8378,0.3459
1764313082450,5.2289,4.1186,5.9821,-0.038,0.0785,0.0542
1764313082460,4.7533,3.9416,6.655,-0.038,0.0785,0.0542
1764313082470,4.7533,3.9416,6.655,-0.038,0.0785,0.0542
1764313082480,4.7222,3.7041,7.2299,0.2141,-0.4148,-0.0492
1764313082490,4.7222,3.7041,7.2299,0.2141,-0.4148,-0.0492
1764313082500,4.7222,3.7041,7.2299,0.0878,-0.1643,0.0359
1764313082510,5.1476,3.6514,7.5218,0.0878,-0.1643,0.0359
1764313082520,5.1476,3.6514,7.5218,-0.1801,0.3093,0.0906
1764313082530,7.3759,4.2174,8.7039,-0.1801,0.3093,0.0906
1764313082540,7.3759,4.2174,8.7039,-0.4355,1.0814,-0.1933
1764313082550,5.7583,3.481,11.1296,-0.4355,1.0814,-0.1933
1764313082560,5.7583,3.481,11.1296,-0.2456,2.3161,-0.0348
1764313082570,2.5711,2.01,8.4449,-0.2456,2.3161,-0.0348
1764313082580,2.5711,2.01,8.4449,-0.3899,2.7742,0.7366
1764313082590,2.3007,3.4564,6.0556,-0.3899,2.7742,0.7366
1764313082600,2.3007,3.4564,6.0556,-0.3899,2.7742,0.7366
1764313082610,4.1647,4.5464,7.5817,-0.7037,1.8005,1.0537
1764313082620,4.1647,4.5464,7.5817,-0.7037,1.8005,1.0537
1764313082630,4.1647,4.5464,7.5817,-0.3195,0.905,0.5899
1764313082640,5.2941,4.6816,8.0542,-0.3195,0.905,0.5899
1764313082650,5.2941,4.6816,8.0542,0.1436,0.0622,-0.0423
1764313082660,4.5906,4.0522,8.1727,0.1436,0.0622,-0.0423
1764313082670,4.5906,4.0522,8.1727,0.2451,-0.2068,-0.3505
1764313082680,3.7795,3.5701,7.8275,0.2451,-0.2068,-0.3505
1764313082690,3.7795,3.5701,7.8275,-0.0283,0.0247,-0.3705
1764313082700,2.8415,3.2907,7.7276,-0.0283,0.0247,-0.3705
1764313082710,2.8415,3.2907,7.7276,-0.3325,0.2149,-0.2251
1764313082720,2.7691,3.0849,8.3384,-0.3325,0.2149,-0.2251
1764313082730,2.7691,3.0849,8.3384,-0.3511,0.2176,-0.1252
1764313082740,3.2411,3.0808,9.3063,-0.3511,0.2176,-0.1252
1764313082750,3.2411,3.0808,9.3063,-0.3511,0.2176,-0.1252
1764313082760,3.2411,3.0808,9.3063,-0.0837,0.027,-0.1457
1764313082770,3.082,2.8463,9.1723,-0.0837,0.027,-0.1457
1764313082780,3.082,2.8463,9.1723,0.1278,-0.1182,-0.131
1764313082790,2.7452,2.9049,8.5585,0.1278,-0.1182,-0.131
1764313082800,2.7452,2.9049,8.5585,0.0484,-0.1668,-0.0447
1764313082810,2.9228,3.0915,8.9127,0.0484,-0.1668,-0.0447
1764313082820,2.9228,3.0915,8.9127,-0.007,-0.0348,-0.0104
1764313082830,3.3805,3.3631,9.1789,-0.007,-0.0348,-0.0104
1764313082840,3.3805,3.3631,9.1789,-0.086,0.1956,-0.0321
1764313082850,3.3565,3.2913,9.1848,-0.086,0.1956,-0.0321
1764313082860,3.3565,3.2913,9.1848,-0.0967,0.3737,-0.0667
1764313082870,3.3565,3.2913,9.1848,-0.0967,0.3737,-0.0667
1764313082880,2.9366,3.0772,9.3254,-0.0967,0.3737,-0.0667
1764313082890,3.2351,2.9785,10.0182,-0.0396,0.4192,-0.0338
1764313082900,3.2351,2.9785,10.0182,-0.0396,0.4192,-0.0338
1764313082910,3.2351,2.9785,10.0182,0.2578,0.4461,-0.0492
1764313082920,2.7051,3.0437,9.0,0.2578,0.4461,-0.0492
1764313082930,2.7051,3.0437,9.0,0.3358,0.3293,0.0078
1764313082940,2.2301,3.2082,8.0656,0.3358,0.3293,0.0078
1764313082950,2.2301,3.2082,8.0656,0.2234,0.1929,0.1316
1764313082960,2.7996,3.6694,8.083,0.2234,0.1929,0.1316
1764313082970,2.7996,3.6694,8.083,0.0133,0.1885,0.1141
1764313082980,3.4726,3.4516,9.3404,0.0133,0.1885,0.1141
1764313082990,3.4726,3.4516,9.3404,0.0788,0.3358,0.0104
1764313083000,3.332,3.4588,9.4343,0.0788,0.3358,0.0104
1764313083010,3.332,3.4588,9.4343,0.0788,0.3358,0.0104
1764313083020,3.332,3.4588,9.4343,0.2092,0.4006,-0.0557
1764313083030,2.8445,3.4493,8.8804,0.2092,0.4006,-0.0557
1764313083040,2.8445,3.4493,8.8804,0.179,0.4389,-0.0475
1764313083050,2.5155,3.5779,8.013,0.179,0.4389,-0.0475
1764313083060,2.5155,3.5779,8.013,0.0887,0.1599,-0.0385
1764313083070,3.1268,3.923,8.6094,0.0887,0.1599,-0.0385
1764313083080,3.1268,3.923,8.6094,0.1759,-0.091,-0.1529
1764313083090,3.2674,3.7603,8.9749,0.1759,-0.091,-0.1529
1764313083100,3.2674,3.7603,8.9749,0.1733,-0.0376,-0.2384
1764313083110,2.5238,3.5192,8.7099,0.1733,-0.0376,-0.2384
1764313083120,2.5238,3.5192,8.7099,0.1733,-0.0376,-0.2384
1764313083130,2.3749,3.6287,8.2265,0.0993,0.015,-0.1419
1764313083140,2.3749,3.6287,8.2265,0.0993,0.015,-0.1419
1764313083150,2.9013,3.8154,8.662,0.0426,-0.1086,-0.0825
1764313083160,2.9013,3.8154,8.662,0.0426,-0.1086,-0.0825
1764313083170,2.9013,3.8154,8.662,0.1313,-0.2914,-0.173
1764313083180,3.3918,3.7268,9.3015,0.1313,-0.2914,-0.173
1764313083190,3.3918,3.7268,9.3015,0.3635,-0.3265,-0.3416
1764313083200,2.3228,3.6353,8.7099,0.3635,-0.3265,-0.3416
1764313083210,2.3228,3.6353,8.7099,0.4531,-0.4336,-0.2369
1764313083220,1.8311,3.5031,7.9519,0.4531,-0.4336,-0.2369
1764313083230,1.8311,3.5031,7.9519,0.491,-0.9352,-0.0858
1764313083240,1.8915,3.4325,8.4849,0.491,-0.9352,-0.0858
1764313083250,1.8915,3.4325,8.4849,0.8816,-1.5873,0.0095
1764313083260,2.455,3.4732,9.1872,0.8816,-1.5873,0.0095
1764313083270,2.455,3.4732,9.1872,0.8816,-1.5873,0.0095
1764313083280,4.0038,4.3825,10.0199,1.2346,-1.5224,0.1179
1764313083290,4.0038,4.3825,10.0199,1.2346,-1.5224,0.1179
1764313083300,4.0038,4.3825,10.0199,0.5102,1.1877,0.396
1764313083310,8.5938,5.7918,10.989,0.5102,1.1877,0.396
1764313083320,8.5938,5.7918,10.989,-2.2914,8.3707,0.3694
1764313083330,13.2933,8.9695,6.6796,-2.2914,8.3707,0.3694
1764313083340,13.2933,8.9695,6.6796,-5.9625,15.7088,-0.5252
1764313083350,13.1432,10.4985,0.9236,-5.9625,15.7088,-0.5252
1764313083360,13.1432,10.4985,0.9236,-7.2314,17.8724,-2.1223
1764313083370,6.4367,6.3284,-3.5366,-7.2314,17.8724,-2.1223
1764313083380,6.4367,6.3284,-3.5366,-4.7994,13.262,-3.6369
1764313083390,-5.6297,-0.4229,-6.2327,-4.7994,13.262,-3.6369
1764313083400,-5.6297,-0.4229,-6.2327,-1.6561,5.0418,-4.0597
1764313083410,-15.4989,-6.6473,-4.063,-1.6561,5.0418,-4.0597
1764313083420,-15.4989,-6.6473,-4.063,-1.6561,5.0418,-4.0597
1764313083430,-16.1916,-9.7884,5.9707,-0.1228,-1.582,-2.8888
1764313083440,-16.1916,-9.7884,5.9707,-0.1228,-1.582,-2.8888
1764313083450,-16.1916,-9.7884,5.9707,0.2146,-2.9514,-1.0693
1764313083460,-12.6676,-7.8323,10.133,0.2146,-2.9514,-1.0693
1764313083470,-12.6676,-7.8323,10.133,0.3688,-2.5194,-0.2104
1764313083480,-11.0584,-5.4305,9.0867,0.3688,-2.5194,-0.2104
1764313083490,-11.0584,-5.4305,9.0867,1.0571,-3.7118,-0.0067
1764313083500,-10.4824,-3.6784,7.5565,1.0571,-3.7118,-0.0067
1764313083510,-10.4824,-3.6784,7.5565,2.4386,-6.8127,0.1089
1764313083520,-8.9827,-2.921,8.5167,2.4386,-6.8127,0.1089
1764313083530,-8.9827,-2.921,8.5167,4.2974,-10.0929,0.3911
1764313083540,-5.1464,-1.1629,9.1807,4.2974,-10.0929,0.3911
1764313083550,-5.1464,-1.1629,9.1807,4.2974,-10.0929,0.3911
1764313083560,0.2357,1.6385,8.0447,5.6251,-11.7566,0.6017
1764313083570,0.2357,1.6385,8.0447,5.6251,-11.7566,0.6017
1764313083580,0.2357,1.6385,8.0447,5.9408,-11.9765,0.334
1764313083590,4.0935,3.7693,7.9077,5.9408,-11.9765,0.334
1764313083600,4.0935,3.7693,7.9077,5.7562,-11.0406,-0.0003
1764313083610,6.4176,4.4064,10.2185,5.7562,-11.0406,-0.0003
1764313083620,6.4176,4.4064,10.2185,4.7472,-7.4058,0.0405
1764313083630,7.7013,5.1577,9.0514,4.7472,-7.4058,0.0405
1764313083640,7.7013,5.1577,9.0514,2.5432,-2.2294,0.2338
1764313083650,8.0124,6.0748,4.8586,2.5432,-2.2294,0.2338
1764313083660,8.0124,6.0748,4.8586,-0.1316,1.8547,0.199
1764313083670,7.3304,6.0885,2.5735,-0.1316,1.8547,0.199
1764313083680,7.3304,6.0885,2.5735,-0.1316,1.8547,0.199
1764313083690,5.0172,4.8132,4.1856,-1.5093,2.7584,-0.1382
1764313083700,5.0172,4.8132,4.1856,-1.5093,2.7584,-0.1382
1764313083710,5.0172,4.8132,4.1856,-1.1579,1.5175,-0.3464
1764313083720,3.1669,3.3105,7.1354,-1.1579,1.5175,-0.3464
1764313083730,3.1669,3.3105,7.1354,-0.1883,0.2225,-0.1985
1764313083740,2.8684,2.7918,8.126,-0.1883,0.2225,-0.1985
1764313083750,2.8684,2.7918,8.126,0.2926,-0.1245,0.1155
1764313083760,3.7531,2.9396,7.4907,0.2926,-0.1245,0.1155
1764313083770,3.7531,2.9396,7.4907,0.1335,0.1008,0.3598
1764313083780,5.6393,4.0068,7.4052,0.1335,0.1008,0.3598
1764313083790,5.6393,4.0068,7.4052,-0.2877,0.6416,0.268
1764313083800,5.9456,4.5117,7.4847,-0.2877,0.6416,0.268
1764313083810,5.9456,4.5117,7.4847,-0.5864,0.9975,0.0417
1764313083820,4.8652,4.0857,7.882,-0.5864,0.9975,0.0417
1764313083830,4.8652,4.0857,7.882,-0.5864,0.9975,0.0417
1764313083840,4.8652,4.0857,7.882,-0.4574,0.6975,-0.0423
1764313083850,4.2084,3.929,8.2564,-0.4574,0.6975,-0.0423
1764313083860,4.2084,3.929,8.2564,-0.0515,0.1179,-0.0814
1764313083870,4.0307,3.9033,8.144,-0.0515,0.1179,-0.0814
1764313083880,4.0307,3.9033,8.144,0.2271,-0.3183,-0.0809
1764313083890,4.1157,3.8907,8.0704,0.2271,-0.3183,-0.0809
1764313083900,4.1157,3.8907,8.0704,0.2761,-0.3699,-0.0238
1764313083910,4.7462,3.9434,7.861,0.2761,-0.3699,-0.0238
1764313083920,4.7462,3.9434,7.861,0.1994,-0.2555,-0.0597
1764313083930,4.6834,3.9846,8.4646,0.1994,-0.2555,-0.0597
1764313083940,4.6834,3.9846,8.4646,0.2492,0.1313,-0.1074
1764313083950,3.2991,2.8636,8.3976,0.2492,0.1313,-0.1074
1764313083960,3.2991,2.8636,8.3976,0.2492,0.1313,-0.1074
1764313083970,3.2991,2.8636,8.3976,0.3586,0.6942,0.3853
1764313083980,3.46,4.1988,6.3781,0.3586,0.6942,0.3853
1764313083990,3.46,4.1988,6.3781,-0.1179,0.8189,0.6489
1764313084000,4.5607,4.599,6.3422,-0.1179,0.8189,0.6489
1764313084010,4.5607,4.599,6.3422,-0.4722,0.9111,0.536
1764313084020,5.1176,4.4566,6.9212,-0.4722,0.9111,0.536
1764313084030,5.1176,4.4566,6.9212,-0.4989,0.7735,0.2408
1764313084040,4.8,4.0965,7.2197,-0.4989,0.7735,0.2408
1764313084050,4.8,4.0965,7.2197,-0.2103,0.0255,-0.0344
1764313084060,4.0612,3.7555,7.9119,-0.2103,0.0255,-0.0344
1764313084070,4.0612,3.7555,7.9119,0.1093,-0.4971,-0.0702
1764313084080,4.0612,3.7555,7.9119,0.1093,-0.4971,-0.0702
1764313084090,3.8668,3.5976,8.1679,0.1093,-0.4971,-0.0702
1764313084100,3.9978,3.6802,8.33,0.0915,-0.4432,0.0249
1764313084110,3.9978,3.6802,8.33,0.0915,-0.4432,0.0249
1764313084120,3.9978,3.6802,8.33,-0.0605,-0.126,0.1264
1764313084130,4.4172,3.7555,8.458,-0.0605,-0.126,0.1264
1764313084140,4.4172,3.7555,8.458,-0.1878,0.1513,0.1228
1764313084150,4.3322,3.7316,8.2869,-0.1878,0.1513,0.1228
1764313084160,4.3322,3.7316,8.2869,-0.2111,0.1494,0.0788
1764313084170,4.1587,3.6359,8.4718,-0.2111,0.1494,0.0788
1764313084180,4.1587,3.6359,8.4718,-0.097,-0.0583,0.0409
1764313084190,4.2437,3.4822,8.8469,-0.097,-0.0583,0.0409
1764313084200,4.2437,3.4822,8.8469,0.1025,-0.1738,0.0053
1764313084210,3.8333,3.3117,8.132,0.1025,-0.1738,0.0053
1764313084220,3.8333,3.3117,8.132,0.1025,-0.1738,0.0053
1764313084230,3.8333,3.3117,8.132,0.1176,-0.2364,0.0693
1764313084240,3.7364,3.3966,7.7958,0.1176,-0.2364,0.0693
1764313084250,3.7364,3.3966,7.7958,0.0765,-0.2682,0.1538
1764313084260,3.7675,3.5509,7.349,0.0765,-0.2682,0.1538
1764313084270,3.7675,3.5509,7.349,-0.0351,-0.2992,0.2469
1764313084280,4.1551,3.6598,7.2664,-0.0351,-0.2992,0.2469
1764313084290,4.1551,3.6598,7.2664,-0.1385,-0.3691,0.2482
1764313084300,5.6154,4.0822,8.6955,-0.1385,-0.3691,0.2482
1764313084310,5.6154,4.0822,8.6955,-0.0099,-0.2042,0.0365
1764313084320,5.6441,3.6897,8.9139,-0.0099,-0.2042,0.0365
1764313084330,5.6441,3.6897,8.9139,0.0843,0.0654,-0.1156
1764313084340,4.666,3.5665,8.3043,0.0843,0.0654,-0.1156
1764313084350,4.666,3.5665,8.3043,0.133,0.038,-0.0899
1764313084360,4.5176,3.8142,7.9029,0.133,0.038,-0.0899
1764313084370,4.5176,3.8142,7.9029,0.133,0.038,-0.0899
1764313084380,4.5176,3.8142,7.9029,0.2075,-0.2054,-0.0874
1764313084390,4.6421,3.9511,7.6415,0.2075,-0.2054,-0.0874
1764313084400,4.6421,3.9511,7.6415,0.2724,-0.4841,-0.1196
1764313084410,4.9902,4.1551,8.0686,0.2724,-0.4841,-0.1196
1764313084420,4.9902,4.1551,8.0686,0.361,-0.4873,-0.197
1764313084430,5.4778,3.9673,8.4849,0.361,-0.4873,-0.197
1764313084440,5.4778,3.9673,8.4849,0.3798,-0.1985,-0.2711
1764313084450,5.2881,3.8411,8.1464,0.3798,-0.1985,-0.2711
1764313084460,5.2881,3.8411,8.1464,0.2659,0.0925,-0.265
1764313084470,4.6451,3.8782,7.8401,0.2659,0.0925,-0.265
1764313084480,4.6451,3.8782,7.8401,0.2659,0.0925,-0.265
1764313084490,4.4925,4.1186,7.6696,0.1826,0.164,-0.19
1764313084500,4.4925,4.1186,7.6696,0.1826,0.164,-0.19
1764313084510,4.9741,4.2604,7.7845,0.2092,-0.0136,-0.1704
1764313084520,4.9741,4.2604,7.7845,0.2092,-0.0136,-0.1704
1764313084530,4.9741,4.2604,7.7845,0.2569,-0.0015,-0.2445
1764313084540,4.7839,4.2096,7.5135,0.2569,-0.0015,-0.2445
1764313084550,4.7839,4.2096,7.5135,0.328,-0.2332,-0.3392
1764313084560,4.2784,3.999,7.0648,0.328,-0.2332,-0.3392
1764313084570,4.2784,3.999,7.0648,0.6226,-1.0122,-0.3913
1764313084580,2.473,3.5234,7.2646,0.6226,-1.0122,-0.3913
1764313084590,2.473,3.5234,7.2646,1.1527,-1.7697,-0.0825
1764313084600,3.5336,3.6371,6.7555,1.1527,-1.7697,-0.0825
1764313084610,3.5336,3.6371,6.7555,1.339,-2.0763,0.0695
1764313084620,4.2102,4.0792,6.6509,1.339,-2.0763,0.0695
1764313084630,4.2102,4.0792,6.6509,1.339,-2.0763,0.0695
1764313084640,4.9322,4.2915,6.5862,1.3787,-1.8537,0.1703
1764313084650,4.9322,4.2915,6.5862,1.3787,-1.8537,0.1703
1764313084660,4.9322,4.2915,6.5862,0.9994,-0.7085,0.3639
1764313084670,7.0098,5.1888,7.5117,0.9994,-0.7085,0.3639
1764313084680,7.0098,5.1888,7.5117,-0.3213,2.385,0.5568
1764313084690,12.1687,7.541,8.7081,-0.3213,2.385,0.5568
1764313084700,12.1687,7.541,8.7081,-2.9592,7.9724,0.0307
1764313084710,15.1819,9.5007,8.2505,-2.9592,7.9724,0.0307
1764313084720,15.1819,9.5007,8.2505,-5.7556,14.1316,-1.1119
1764313084730,14.802,9.3912,4.8766,-5.7556,14.1316,-1.1119
1764313084740,14.802,9.3912,4.8766,-7.5414,18.7342,-2.3069
1764313084750,11.2092,6.9793,1.3944,-7.5414,18.7342,-2.3069
1764313084760,11.2092,6.9793,1.3944,-7.5414,18.7342,-2.3069
1764313084770,0.1705,0.5456,-2.1452,-6.9101,19.1234,-3.4864
1764313084780,0.1705,0.5456,-2.1452,-6.9101,19.1234,-3.4864
1764313084790,0.1705,0.5456,-2.1452,-3.3338,12.7852,-3.4886
1764313084800,-14.8463,-4.0475,-9.9386,-3.3338,12.7852,-3.4886
1764313084810,-14.8463,-4.0475,-9.9386,0.401,1.2485,-2.4894
1764313084820,-17.5837,-5.4987,-3.8668,0.401,1.2485,-2.4894
1764313084830,-17.5837,-5.4987,-3.8668,2.1005,-5.5587,-0.9552
1764313084840,-10.9819,-5.7284,7.349,2.1005,-5.5587,-0.9552
1764313084850,-10.9819,-5.7284,7.349,1.8019,-4.7886,0.2689
1764313084860,-5.1464,-2.0022,9.0622,1.8019,-4.7886,0.2689
1764313084870,-5.1464,-2.0022,9.0622,0.5895,-2.3976,0.0829
1764313084880,-4.5978,-0.4223,8.6871,0.5895,-2.3976,0.0829
1764313084890,-4.5978,-0.4223,8.6871,0.1339,-1.615,-0.4914
1764313084900,-7.1055,-1.1904,8.7003,0.1339,-1.615,-0.4914
1764313084910,-7.1055,-1.1904,8.7003,0.1339,-1.615,-0.4914
1764313084920,-7.1055,-1.1904,8.7003,0.7749,-2.6965,-0.5284
1764313084930,-8.1775,-1.6379,8.0267,0.7749,-2.6965,-0.5284
1764313084940,-8.1775,-1.6379,8.0267,2.0195,-5.204,-0.3435
1764313084950,-7.9986,-1.7151,7.9795,2.0195,-5.204,-0.3435
1764313084960,-7.9986,-1.7151,7.9795,3.6291,-8.4501,-0.1362
1764313084970,-6.2501,-1.7151,10.2526,3.6291,-8.4501,-0.1362
1764313084980,-6.2501,-1.7151,10.2526,5.0932,-10.4772,0.2343
1764313084990,-1.6905,-0.0574,11.8146,5.0932,-10.4772,0.2343
1764313085000,-1.6905,-0.0574,11.8146,5.8067,-10.5463,0.3654
1764313085010,1.5793,2.0818,12.0724,5.8067,-10.5463,0.3654
1764313085020,1.5793,2.0818,12.0724,5.5546,-8.7577,0.3919
1764313085030,1.5793,2.0818,12.0724,5.5546,-8.7577,0.3919
1764313085040,2.784,3.1358,9.6347,5.5546,-8.7577,0.3919
1764313085050,4.9017,4.7761,7.7372,4.5479,-6.3258,0.5699
1764313085060,4.9017,4.7761,7.7372,4.5479,-6.3258,0.5699
1764313085070,4.9017,4.7761,7.7372,3.0746,-3.2611,0.6518
1764313085080,6.7113,6.2704,5.6279,3.0746,-3.2611,0.6518
1764313085090,6.7113,6.2704,5.6279,1.2181,-0.2014,0.4494
1764313085100,6.7448,6.4522,4.2006,1.2181,-0.2014,0.4494
1764313085110,6.7448,6.4522,4.2006,-0.2983,1.7126,0.1472
1764313085120,5.1841,5.3856,4.2419,-0.2983,1.7126,0.1472
1764313085130,5.1841,5.3856,4.2419,-0.826,1.8865,0.0116
1764313085140,3.6275,4.4058,5.0979,-0.826,1.8865,0.0116
1764313085150,3.6275,4.4058,5.0979,-0.6301,1.2158,0.0617
1764313085160,3.2171,4.0522,6.6694,-0.6301,1.2158,0.0617
1764313085170,3.2171,4.0522,6.6694,-0.6301,1.2158,0.0617
1764313085180,3.2171,4.0522,6.6694,-0.2627,0.6955,0.2039
1764313085190,3.4935,3.8285,7.6367,-0.2627,0.6955,0.2039
1764313085200,3.4935,3.8285,7.6367,0.0635,0.5435,0.3638
1764313085210,4.4507,4.3053,7.2999,0.0635,0.5435,0.3638
1764313085220,4.4507,4.3053,7.2999,0.0961,0.6026,0.348
1764313085230,4.7647,4.6122,6.8656,0.0961,0.6026,0.348
1764313085240,4.7647,4.6122,6.8656,-0.1292,0.7764,0.3002
1764313085250,4.6457,4.8395,7.0074,-0.1292,0.7764,0.3002
1764313085260,4.6457,4.8395,7.0074,-0.3606,0.9117,0.2833
1764313085270,4.3418,4.5787,8.065,-0.3606,0.9117,0.2833
1764313085280,4.3418,4.5787,8.065,-0.212,0.9658,0.3206
1764313085290,4.3418,4.5787,8.065,-0.212,0.9658,0.3206
1764313085300,4.0439,4.8209,7.6457,-0.212,0.9658,0.3206
1764313085310,3.7968,4.8413,6.9153,-0.1277,0.8896,0.3745
1764313085320,3.7968,4.8413,6.9153,-0.1277,0.8896,0.3745
1764313085330,3.7968,4.8413,6.9153,-0.2126,0.4762,0.3841
1764313085340,4.0899,4.5511,7.7737,-0.2126,0.4762,0.3841
1764313085350,4.0899,4.5511,7.7737,-0.1814,0.2918,0.3308
1764313085360,4.3011,4.5577,8.4227,-0.1814,0.2918,0.3308
1764313085370,4.3011,4.5577,8.4227,-0.0881,0.2825,0.2216
1764313085380,4.3436,4.6672,8.4287,-0.0881,0.2825,0.2216
1764313085390,4.3436,4.6672,8.4287,-0.0669,0.3833,0.0939
1764313085400,4.0409,4.4381,8.1033,-0.0669,0.3833,0.0939
1764313085410,4.0409,4.4381,8.1033,-0.0857,0.4343,0.0063
1764313085420,3.4409,4.3472,7.4818,-0.0857,0.4343,0.0063
1764313085430,3.4409,4.3472,7.4818,-0.0857,0.4343,0.0063
1764313085440,2.9318,4.1049,7.587,-0.0625,0.1379,-0.0243
1764313085450,2.9318,4.1049,7.587,-0.0625,0.1379,-0.0243
1764313085460,3.2656,4.0594,8.0668,0.0301,-0.1856,0.0441
1764313085470,3.2656,4.0594,8.0668,0.0301,-0.1856,0.0441
1764313085480,3.2656,4.0594,8.0668,0.0541,-0.1374,0.0996
1764313085490,3.7394,4.1432,8.1129,0.0541,-0.1374,0.0996
1764313085500,3.7394,4.1432,8.1129,-0.0371,0.0796,0.0681
1764313085510,3.664,4.1647,8.0094,-0.0371,0.0796,0.0681
1764313085520,3.664,4.1647,8.0094,-0.0764,0.0947,0.02
1764313085530,3.411,4.0439,8.1272,-0.0764,0.0947,0.02
1764313085540,3.411,4.0439,8.1272,-0.0363,0.0243,0.017
1764313085550,3.259,4.0409,8.12,-0.0363,0.0243,0.017
1764313085560,3.259,4.0409,8.12,-0.0046,-0.0226,0.0441
1764313085570,3.0903,4.0744,7.8706,-0.0046,-0.0226,0.0441
1764313085580,3.0903,4.0744,7.8706,-0.0046,-0.0226,0.0441
1764313085590,3.6622,4.3681,8.1655,0.011,-0.1074,0.0903
1764313085600,3.6622,4.3681,8.1655,0.011,-0.1074,0.0903
1764313085610,3.6622,4.3681,8.1655,0.0414,-0.1758,0.02
1764313085620,3.8943,3.9882,8.4096,0.0414,-0.1758,0.02
1764313085630,3.8943,3.9882,8.4096,0.0414,-0.1758,0.02
