Timestamp,ax,ay,az,gx,gy,gz
1764313061300,3.4505,3.9039,7.3304,0.662,-0.8512,-0.2576
1764313061310,3.4505,3.9039,7.3304,0.7282,-1.0522,-0.1897
1764313061320,2.6255,3.5928,7.4207,0.7282,-1.0522,-0.1897
1764313061330,2.6255,3.5928,7.4207,0.9303,-1.0985,0.1257
1764313061340,3.7089,4.0534,6.3218,0.9303,-1.0985,0.1257
1764313061350,3.7089,4.0534,6.3218,0.6878,-0.9919,0.2367
1764313061360,4.5619,4.4279,6.6485,0.6878,-0.9919,0.2367
1764313061370,4.5619,4.4279,6.6485,0.2987,-0.4438,0.2621
1764313061380,5.3587,4.538,6.8847,0.2987,-0.4438,0.2621
1764313061390,5.3587,4.538,6.8847,0.2987,-0.4438,0.2621
1764313061400,5.5167,4.727,7.0762,0.0247,-0.0104,0.2645
1764313061410,5.5167,4.727,7.0762,0.0247,-0.0104,0.2645
1764313061420,5.5167,4.727,7.0762,-0.0017,0.1127,0.2161
1764313061430,5.4556,4.8861,7.2036,-0.0017,0.1127,0.2161
1764313061440,5.4556,4.8861,7.2036,0.0538,0.0646,0.159
1764313061450,5.4335,4.8987,7.3585,0.0538,0.0646,0.159
1764313061460,5.4335,4.8987,7.3585,0.1403,0.0209,0.1055
1764313061470,5.4203,4.8126,7.3107,0.1403,0.0209,0.1055
1764313061480,5.4203,4.8126,7.3107,0.1403,0.0209,0.1055
1764313061490,5.1912,4.6457,7.3825,0.1906,0.0111,0.0727
1764313061500,5.1912,4.6457,7.3825,0.1726,0.1944,0.0915
1764313061510,5.2642,4.538,8.1577,0.1726,0.1944,0.0915
1764313061520,5.2642,4.538,8.1577,0.1726,0.1944,0.0915
1764313061530,7.745,5.0088,10.8251,-0.1145,1.3711,0.2558
1764313061540,7.745,5.0088,10.8251,-0.1145,1.3711,0.2558
1764313061550,7.745,5.0088,10.8251,-1.4502,5.8845,0.3352
1764313061560,12.3266,7.279,11.6758,-1.4502,5.8845,0.3352
1764313061570,12.3266,7.279,11.6758,-4.5118,14.2748,0.1013
1764313061580,15.5599,9.1801,4.5858,-4.5118,14.2748,0.1013
1764313061590,15.5599,9.1801,4.5858,-7.9903,21.2902,-0.4722
1764313061600,12.3775,8.8708,-2.4006,-7.9903,21.2902,-0.4722
1764313061610,12.3775,8.8708,-2.4006,-8.0614,20.6498,-1.3567
1764313061620,1.6451,4.6193,-6.4828,-8.0614,20.6498,-1.3567
1764313061630,1.6451,4.6193,-6.4828,-3.0826,10.5451,-2.5586
1764313061640,-9.7591,0.5707,-8.5585,-3.0826,10.5451,-2.5586
1764313061650,-9.7591,0.5707,-8.5585,1.6054,-1.3192,-3.6081
1764313061660,-9.7591,0.5707,-8.5585,1.6054,-1.3192,-3.6081
1764313061670,-15.4708,-7.4022,-0.7908,1.6054,-1.3192,-3.6081
1764313061680,-15.4708,-7.4022,-0.7908,1.3596,-4.2041,-2.0997
1764313061690,-12.1717,-7.8999,9.0114,1.3596,-4.2041,-2.0997
1764313061700,-12.1717,-7.8999,9.0114,-0.8496,-0.4334,-0.7312
1764313061710,-10.2066,-4.7169,9.1053,-0.8496,-0.4334,-0.7312
1764313061720,-10.2066,-4.7169,9.1053,-1.199,0.5513,-0.6074
1764313061730,-11.5155,-3.7555,7.4082,-1.199,0.5513,-0.6074
1764313061740,-11.5155,-3.7555,7.4082,0.3257,-2.2087,-0.6713
1764313061750,-10.9113,-3.055,7.5135,0.3257,-2.2087,-0.6713
1764313061760,-10.9113,-3.055,7.5135,1.6802,-4.8188,-0.5183
1764313061770,-8.8947,-2.2128,7.407,1.6802,-4.8188,-0.5183
1764313061780,-8.8947,-2.2128,7.407,2.3306,-6.3985,-0.2738
1764313061790,-8.8947,-2.2128,7.407,2.3306,-6.3985,-0.2738
1764313061800,-5.7655,-0.7352,7.8257,2.3306,-6.3985,-0.2738
1764313061810,-5.7655,-0.7352,7.8257,2.5656,-7.3276,-0.2906
1764313061820,-2.616,-0.1065,9.8154,2.5656,-7.3276,-0.2906
1764313061830,-2.616,-0.1065,9.8154,2.6522,-7.415,-0.5577
1764313061840,-1.5565,-0.2058,12.216,2.6522,-7.415,-0.5577
1764313061850,-1.5565,-0.2058,12.216,2.9358,-6.9051,-0.5545
1764313061860,-0.5348,-0.198,12.9272,2.9358,-6.9051,-0.5545
1764313061870,-0.5348,-0.198,12.9272,3.0505,-5.8561,-0.3294
1764313061880,0.9697,0.6784,13.0612,3.0505,-5.8561,-0.3294
1764313061890,0.9697,0.6784,13.0612,2.596,-3.748,-0.0919
1764313061900,2.0495,1.5206,11.6148,2.596,-3.748,-0.0919
1764313061910,2.0495,1.5206,11.6148,1.5218,-1.1267,0.0901
1764313061920,2.0465,2.1027,8.7709,1.5218,-1.1267,0.0901
1764313061930,2.0465,2.1027,8.7709,1.5218,-1.1267,0.0901
1764313061940,1.5188,2.4263,8.0333,0.4829,0.2506,0.1724
1764313061950,1.5188,2.4263,8.0333,0.4829,0.2506,0.1724
1764313061960,1.5188,2.4263,8.0333,0.1449,0.3708,0.0913
1764313061970,1.1743,2.3222,7.928,0.1449,0.3708,0.0913
1764313061980,1.1743,2.3222,7.928,0.4731,-0.5084,-0.1107
1764313061990,1.2221,2.1458,8.4275,0.4731,-0.5084,-0.1107
1764313062000,1.2221,2.1458,8.4275,0.963,-1.401,-0.2669
1764313062010,1.5876,2.15,8.735,0.963,-1.401,-0.2669
1764313062020,1.5876,2.15,8.735,1.0999,-1.7301,-0.3273
1764313062030,1.4106,1.8628,9.0556,1.0999,-1.7301,-0.3273
1764313062040,1.4106,1.8628,9.0556,1.0209,-1.4755,-0.131
1764313062050,1.4913,1.9346,8.7547,1.0209,-1.4755,-0.131
1764313062060,1.4913,1.9346,8.7547,1.0209,-1.4755,-0.131
1764313062070,1.4913,1.9346,8.7547,0.6637,-0.9441,0.1275
1764313062080,2.2265,2.6387,7.9334,0.6637,-0.9441,0.1275
1764313062090,2.2265,2.6387,7.9334,0.4443,-1.1768,0.0999
1764313062100,2.8409,3.2369,7.9107,0.4443,-1.1768,0.0999
1764313062110,2.8409,3.2369,7.9107,0.8479,-2.4131,-0.1814
1764313062120,3.3278,3.122,9.1358,0.8479,-2.4131,-0.1814
1764313062130,3.3278,3.122,9.1358,1.5035,-3.2037,-0.3355
1764313062140,3.7149,2.9833,9.9206,1.5035,-3.2037,-0.3355
1764313062150,3.7149,2.9833,9.9206,1.5937,-1.9949,-0.1303
1764313062160,3.7149,2.9833,9.9206,1.5937,-1.9949,-0.1303
1764313062170,3.4839,2.586,8.546,1.5937,-1.9949,-0.1303
1764313062180,3.3021,3.801,5.6997,0.6906,0.4511,0.3273
1764313062190,3.3021,3.801,5.6997,-0.504,1.0261,0.8178
1764313062200,4.2718,4.6834,6.2836,-0.504,1.0261,0.8178
1764313062210,4.2718,4.6834,6.2836,-0.504,1.0261,0.8178
1764313062220,4.2718,4.6834,6.2836,-0.9311,1.0247,0.7198
1764313062230,5.5047,4.3992,7.1097,-0.9311,1.0247,0.7198
1764313062240,5.5047,4.3992,7.1097,-0.7567,0.4241,0.1538
1764313062250,4.8299,3.996,9.0796,-0.7567,0.4241,0.1538
1764313062260,4.8299,3.996,9.0796,-0.297,-0.0331,-0.1567
1764313062270,4.0313,3.1119,9.9482,-0.297,-0.0331,-0.1567
1764313062280,4.0313,3.1119,9.9482,0.0084,0.007,-0.1249
1764313062290,3.6,2.8534,9.7849,0.0084,0.007,-0.1249
1764313062300,3.6,2.8534,9.7849,-0.0502,0.5069,0.0579
1764313062310,3.6628,3.1394,8.8678,-0.0502,0.5069,0.0579
1764313062320,3.6628,3.1394,8.8678,-0.0502,0.5069,0.0579
1764313062330,3.7364,3.3661,8.5872,-0.2327,0.7254,0.1275
1764313062340,3.7364,3.3661,8.5872,-0.2327,0.7254,0.1275
1764313062350,3.7854,3.4217,8.8899,-0.2001,0.4673,0.0324
1764313062360,3.7854,3.4217,8.8899,-0.2001,0.4673,0.0324
1764313062370,3.7854,3.4217,8.8899,0.0948,-0.0886,-0.1432
1764313062380,3.2112,3.1214,9.1729,0.0948,-0.0886,-0.1432
1764313062390,3.2112,3.1214,9.1729,0.4064,-0.4861,-0.1631
1764313062400,2.9587,2.9575,9.0096,0.4064,-0.4861,-0.1631
1764313062410,2.9587,2.9575,9.0096,0.447,-0.4633,-0.0512
1764313062420,3.015,3.058,8.4993,0.447,-0.4633,-0.0512
1764313062430,3.015,3.058,8.4993,0.296,-0.2433,0.0625
1764313062440,3.5145,3.3673,8.3157,0.296,-0.2433,0.0625
1764313062450,3.5145,3.3673,8.3157,0.1472,-0.1313,0.0683
1764313062460,3.7789,3.4253,8.263,0.1472,-0.1313,0.0683
1764313062470,3.7789,3.4253,8.263,0.1472,-0.1313,0.0683
1764313062480,3.4361,3.4217,7.7318,0.1326,-0.0547,0.005
1764313062490,3.4361,3.4217,7.7318,0.1326,-0.0547,0.005
1764313062500,3.4361,3.4217,7.7318,0.0655,-0.067,0.0034
1764313062510,3.3069,3.3081,7.7575,0.0655,-0.067,0.0034
1764313062520,3.3069,3.3081,7.7575,-0.0855,0.0661,0.0722
1764313062530,3.6132,3.2794,8.1948,-0.0855,0.0661,0.0722
1764313062540,3.6132,3.2794,8.1948,-0.2363,0.3063,0.1313
1764313062550,3.996,3.4086,8.6668,-0.2363,0.3063,0.1313
1764313062560,3.996,3.4086,8.6668,-0.2954,0.4856,0.1072
1764313062570,3.9787,3.5306,8.933,-0.2954,0.4856,0.1072
1764313062580,3.9787,3.5306,8.933,-0.1984,0.3552,0.0217
1764313062590,3.7555,3.4475,8.8929,-0.1984,0.3552,0.0217
1764313062600,3.7555,3.4475,8.8929,-0.1984,0.3552,0.0217
1764313062610,3.5527,3.417,8.9318,0.0223,0.0406,-0.0495
1764313062620,3.5527,3.417,8.9318,0.0223,0.0406,-0.0495
1764313062630,3.5527,3.417,8.9318,0.188,-0.2039,-0.0747
1764313062640,3.4648,3.4026,8.8696,0.188,-0.2039,-0.0747
1764313062650,3.4648,3.4026,8.8696,0.2486,-0.1729,-0.0528
1764313062660,3.527,3.2913,8.8762,0.2486,-0.1729,-0.0528
1764313062670,3.527,3.2913,8.8762,0.1046,0.1171,0.0046
1764313062680,3.8955,3.4762,8.994,0.1046,0.1171,0.0046
1764313062690,3.8955,3.4762,8.994,0.0308,0.3346,-0.0304
1764313062700,3.7376,3.4822,8.5902,0.0308,0.3346,-0.0304
1764313062710,3.7376,3.4822,8.5902,0.0214,0.348,-0.0947
1764313062720,3.5593,3.4917,8.5262,0.0214,0.348,-0.0947
1764313062730,3.5593,3.4917,8.5262,0.0492,0.2124,-0.151
1764313062740,2.9557,3.0975,8.7015,0.0492,0.2124,-0.151
1764313062750,2.9557,3.0975,8.7015,0.0492,0.2124,-0.151
1764313062760,2.9557,3.0975,8.7015,0.1649,0.1005,-0.1017
1764313062770,2.817,3.2255,8.7117,0.1649,0.1005,-0.1017
1764313062780,2.817,3.2255,8.7117,0.2541,0.0421,-0.0089
1764313062790,3.457,3.417,8.7757,0.2541,0.0421,-0.0089
1764313062800,3.457,3.417,8.7757,0.2627,0.2222,-0.0063
1764313062810,3.5186,3.6371,8.0507,0.2627,0.2222,-0.0063
1764313062820,3.5186,3.6371,8.0507,0.1599,0.2323,-0.0528
1764313062830,3.4666,3.8991,8.0865,0.1599,0.2323,-0.0528
1764313062840,3.4666,3.8991,8.0865,0.1124,0.093,-0.12
1764313062850,3.1089,3.6197,8.4407,0.1124,0.093,-0.12
1764313062860,3.1089,3.6197,8.4407,0.1625,-0.0229,-0.1205
1764313062870,3.1089,3.6197,8.4407,0.1625,-0.0229,-0.1205
1764313062880,2.4437,3.2237,8.6489,0.1625,-0.0229,-0.1205
1764313062890,2.6094,3.5139,8.6824,0.2931,-0.1118,0.0192
1764313062900,2.6094,3.5139,8.6824,0.2931,-0.1118,0.0192
1764313062910,2.6094,3.5139,8.6824,0.4194,-0.3806,0.1355
1764313062920,3.0449,3.4666,8.5107,0.4194,-0.3806,0.1355
1764313062930,3.0449,3.4666,8.5107,0.6568,-0.9613,0.0812
1764313062940,3.2465,3.7693,8.5394,0.6568,-0.9613,0.0812
1764313062950,3.2465,3.7693,8.5394,1.2098,-2.0336,-0.1122
1764313062960,3.3248,3.591,9.0987,1.2098,-2.0336,-0.1122
1764313062970,3.3248,3.591,9.0987,1.901,-2.8211,-0.2027
1764313062980,3.4947,3.5988,10.2401,1.901,-2.8211,-0.2027
1764313062990,3.4947,3.5988,10.2401,1.9416,-1.5073,0.1936
1764313063000,5.8624,4.2191,11.412,1.9416,-1.5073,0.1936
1764313063010,5.8624,4.2191,11.412,1.9416,-1.5073,0.1936
1764313063020,5.8624,4.2191,11.412,0.0418,4.0152,0.7669
1764313063030,11.5968,7.0217,9.5139,0.0418,4.0152,0.7669
1764313063040,11.5968,7.0217,9.5139,-4.0268,12.5473,0.5484
1764313063050,16.794,10.7833,5.2008,-4.0268,12.5473,0.5484
1764313063060,16.794,10.7833,5.2008,-7.8117,19.3213,-0.6481
1764313063070,16.3681,10.1725,4.2867,-7.8117,19.3213,-0.6481
1764313063080,16.3681,10.1725,4.2867,-8.1344,21.9233,-2.1599
1764313063090,5.3492,4.6768,-3.8345,-8.1344,21.9233,-2.1599
1764313063100,5.3492,4.6768,-3.8345,-4.0575,15.0636,-2.9829
1764313063110,-10.94,0.4516,-13.8245,-4.0575,15.0636,-2.9829
1764313063120,-10.94,0.4516,-13.8245,0.6576,1.7225,-3.2353
1764313063130,-16.55,-5.129,-7.0223,0.6576,1.7225,-3.2353
1764313063140,-16.55,-5.129,-7.0223,0.6576,1.7225,-3.2353
1764313063150,-11.6501,-6.7561,6.4953,1.7367,-5.032,-1.8935
1764313063160,-11.6501,-6.7561,6.4953,1.7367,-5.032,-1.8935
1764313063170,-11.6501,-6.7561,6.4953,0.4783,-2.8885,-0.5786
1764313063180,-8.6034,-4.1348,7.2802,0.4783,-2.8885,-0.5786
1764313063190,-8.6034,-4.1348,7.2802,-0.8033,-0.719,-0.5139
1764313063200,-9.9571,-3.8064,6.6072,-0.8033,-0.719,-0.5139
1764313063210,-9.9571,-3.8064,6.6072,-0.4129,-1.8046,-0.5081
1764313063220,-10.3621,-3.0449,7.3681,-0.4129,-1.8046,-0.5081
1764313063230,-10.3621,-3.0449,7.3681,1.0029,-4.2678,-0.374
1764313063240,-9.0497,-2.0674,6.8883,1.0029,-4.2678,-0.374
1764313063250,-9.0497,-2.0674,6.8883,2.1542,-6.6832,-0.228
1764313063260,-7.4094,-1.5858,6.4893,2.1542,-6.6832,-0.228
1764313063270,-7.4094,-1.5858,6.4893,2.1542,-6.6832,-0.228
1764313063280,-3.7424,-0.8596,8.2648,2.9346,-8.9134,-0.0932
1764313063290,-3.7424,-0.8596,8.2648,2.9346,-8.9134,-0.0932
1764313063300,-3.7424,-0.8596,8.2648,3.5364,-10.195,-0.1205
1764313063310,0.6,0.5964,12.0329,3.5364,-10.195,-0.1205
1764313063320,0.6,0.5964,12.0329,3.8967,-9.5684,-0.3192
1764313063330,3.1663,1.3101,14.9091,3.8967,-9.5684,-0.3192
1764313063340,3.1663,1.3101,14.9091,3.8055,-7.2985,-0.4331
1764313063350,3.0497,1.6445,13.1653,3.8055,-7.2985,-0.4331
1764313063360,3.0497,1.6445,13.1653,3.6267,-5.5717,-0.3558
1764313063370,2.6991,2.7601,10.3322,3.6267,-5.5717,-0.3558
1764313063380,2.6991,2.7601,10.3322,3.2445,-4.1476,-0.0687
1764313063390,3.9565,3.6191,8.2744,3.2445,-4.1476,-0.0687
1764313063400,3.9565,3.6191,8.2744,1.9607,-1.7689,0.1741
1764313063410,5.3683,4.2897,6.7573,1.9607,-1.7689,0.1741
1764313063420,5.3683,4.2897,6.7573,1.9607,-1.7689,0.1741
1764313063430,4.4315,4.3513,5.7254,0.565,0.256,0.0437
1764313063440,4.4315,4.3513,5.7254,0.565,0.256,0.0437
1764313063450,4.4315,4.3513,5.7254,0.1588,0.3285,-0.19
1764313063460,3.4235,3.7394,5.5813,0.1588,0.3285,-0.19
1764313063470,3.4235,3.7394,5.5813,0.5469,-0.8175,-0.2755
1764313063480,3.1507,3.478,6.2919,0.5469,-0.8175,-0.2755
1764313063490,3.1507,3.478,6.2919,0.8596,-1.5904,-0.2042
1764313063500,3.7011,3.3404,7.1833,0.8596,-1.5904,-0.2042
1764313063510,3.7011,3.3404,7.1833,0.7827,-1.4268,-0.0228
1764313063520,4.9065,3.5545,7.2897,0.7827,-1.4268,-0.0228
1764313063530,4.9065,3.5545,7.2897,0.7827,-1.4268,-0.0228
1764313063540,5.068,3.8441,6.6981,0.3554,-0.6344,0.0884
1764313063550,5.068,3.8441,6.6981,0.3554,-0.6344,0.0884
1764313063560,4.3394,3.5767,6.7364,-0.1649,0.275,0.1666
1764313063570,4.3394,3.5767,6.7364,-0.1649,0.275,0.1666
1764313063580,4.3394,3.5767,6.7364,-0.5079,1.0114,0.33
1764313063590,4.3053,4.2114,6.3727,-0.5079,1.0114,0.33
1764313063600,4.3053,4.2114,6.3727,-0.859,0.8599,0.5825
1764313063610,5.0716,4.0756,7.3065,-0.859,0.8599,0.5825
1764313063620,5.0716,4.0756,7.3065,-0.8899,0.4316,0.4241
1764313063630,5.5819,3.7627,9.4134,-0.8899,0.4316,0.4241
1764313063640,5.5819,3.7627,9.4134,-0.3508,0.1147,0.1397
1764313063650,5.2564,3.5797,10.0134,-0.3508,0.1147,0.1397
1764313063660,5.2564,3.5797,10.0134,0.1645,-0.0735,0.0066
1764313063670,4.9053,3.6963,9.2662,0.1645,-0.0735,0.0066
1764313063680,4.9053,3.6963,9.2662,0.1645,-0.0735,0.0066
1764313063690,4.5021,3.7184,8.4437,0.2865,-0.0363,-0.0231
1764313063700,4.5021,3.7184,8.4437,0.2865,-0.0363,-0.0231
1764313063710,4.5021,3.7184,8.4437,0.1897,0.1232,0.0221
1764313063720,4.1234,3.7938,7.7587,0.1897,0.1232,0.0221
1764313063730,4.1234,3.7938,7.7587,0.122,-0.0246,0.0567
1764313063740,4.3884,3.8847,7.9645,0.122,-0.0246,0.0567
1764313063750,4.3884,3.8847,7.9645,0.2046,-0.1697,0.0108
1764313063760,4.9866,3.8668,8.2181,0.2046,-0.1697,0.0108
1764313063770,4.9866,3.8668,8.2181,0.2691,-0.102,-0.109
1764313063780,4.4794,3.6646,7.6935,0.2691,-0.102,-0.109
1764313063790,4.4794,3.6646,7.6935,0.2691,-0.102,-0.109
1764313063800,4.2401,3.7125,7.5835,0.2476,-0.0666,-0.1306
1764313063810,4.2401,3.7125,7.5835,0.2476,-0.0666,-0.1306
1764313063820,3.8142,3.5521,7.2945,0.1885,-0.0148,-0.113
1764313063830,3.8142,3.5521,7.2945,0.1885,-0.0148,-0.113
1764313063840,3.8142,3.5521,7.2945,0.0899,0.0553,-0.0018
1764313063850,3.7137,3.6622,7.0714,0.0899,0.0553,-0.0018
1764313063860,3.7137,3.6622,7.0714,-0.1089,0.0999,0.119
1764313063870,3.8973,3.5749,7.5057,-0.1089,0.0999,0.119
1764313063880,3.8973,3.5749,7.5057,-0.2469,0.2673,0.2404
1764313063890,4.191,3.6479,7.4321,-0.2469,0.2673,0.2404
1764313063900,4.191,3.6479,7.4321,-0.3567,0.2784,0.2914
1764313063910,4.9687,3.883,8.3761,-0.3567,0.2784,0.2914
1764313063920,4.9687,3.883,8.3761,-0.1808,0.0133,0.1287
1764313063930,5.7553,3.8746,9.7496,-0.1808,0.0133,0.1287
1764313063940,5.7553,3.8746,9.7496,0.2378,0.048,-0.1083
1764313063950,5.1667,3.8124,8.8822,0.2378,0.048,-0.1083
1764313063960,5.1667,3.8124,8.8822,0.2378,0.048,-0.1083
1764313063970,5.1667,3.8124,8.8822,0.3688,0.0785,-0.1885
1764313063980,4.2909,3.8459,7.9525,0.3688,0.0785,-0.1885
1764313063990,4.2909,3.8459,7.9525,0.263,0.1174,-0.0883
1764313064000,4.066,3.8925,7.3998,0.263,0.1174,-0.0883
1764313064010,4.066,3.8925,7.3998,0.1571,-0.0128,-0.0057
1764313064020,4.1767,3.9547,7.7097,0.1571,-0.0128,-0.0057
1764313064030,4.1767,3.9547,7.7097,0.1717,-0.0646,0.0095
1764313064040,4.4967,3.8776,7.9376,0.1717,-0.0646,0.0095
1764313064050,4.4967,3.8776,7.9376,0.1347,0.0857,0.0115
1764313064060,4.5864,3.8812,7.9603,0.1347,0.0857,0.0115
1764313064070,4.5864,3.8812,7.9603,0.068,0.245,-0.0038
1764313064080,4.6744,3.8638,8.1852,0.068,0.245,-0.0038
1764313064090,4.6744,3.8638,8.1852,0.068,0.245,-0.0038
1764313064100,4.3825,3.8632,8.0812,0.1454,0.1768,-0.071
1764313064110,4.3825,3.8632,8.0812,0.1454,0.1768,-0.071
1764313064120,4.3825,3.8632,8.0812,0.2847,-0.0182,-0.1297
1764313064130,4.1761,3.999,7.812,0.2847,-0.0182,-0.1297
1764313064140,4.1761,3.999,7.812,0.3201,-0.1211,-0.1294
1764313064150,4.2341,4.1174,7.7001,0.3201,-0.1211,-0.1294
1764313064160,4.2341,4.1174,7.7001,0.2095,0.047,-0.104
1764313064170,4.2975,4.1713,7.6361,0.2095,0.047,-0.104
1764313064180,4.2975,4.1713,7.6361,0.0916,0.1782,-0.1066
1764313064190,4.0965,4.0947,7.66,0.0916,0.1782,-0.1066
1764313064200,4.0965,4.0947,7.66,0.077,0.155,-0.1025
1764313064210,4.1844,4.194,7.5595,0.077,0.155,-0.1025
1764313064220,4.1844,4.194,7.5595,0.077,0.155,-0.1025
1764313064230,4.5338,4.3244,7.6475,0.099,0.0559,-0.142
1764313064240,4.5338,4.3244,7.6475,0.099,0.0559,-0.142
1764313064250,4.5338,4.3244,7.6475,0.1115,0.0023,-0.223
1764313064260,4.5254,4.3442,7.8676,0.1115,0.0023,-0.223
1764313064270,4.5254,4.3442,7.8676,0.0695,0.0783,-0.2723
1764313064280,3.9996,4.0995,7.858,0.0695,0.0783,-0.2723
1764313064290,3.9996,4.0995,7.858,0.025,0.1394,-0.2127
1764313064300,3.7346,4.1827,7.5918,0.025,0.1394,-0.2127
1764313064310,3.7346,4.1827,7.5918,0.0267,0.0302,-0.1431
1764313064320,3.8776,4.2718,7.7815,0.0267,0.0302,-0.1431
1764313064330,3.8776,4.2718,7.7815,0.0809,-0.0877,-0.1489
1764313064340,3.8411,4.2048,8.0638,0.0809,-0.0877,-0.1489
1764313064350,3.8411,4.2048,8.0638,0.1802,-0.1982,-0.129
1764313064360,4.1139,4.2867,7.9747,0.1802,-0.1982,-0.129
1764313064370,4.1139,4.2867,7.9747,0.1802,-0.1982,-0.129
1764313064380,4.1139,4.2867,7.9747,0.325,-0.5214,-0.1599
1764313064390,4.1575,4.2628,8.4257,0.325,-0.5214,-0.1599
1764313064400,4.1575,4.2628,8.4257,0.5834,-0.7906,-0.1998
1764313064410,3.7041,4.2497,8.2331,0.5834,-0.7906,-0.1998
1764313064420,3.7041,4.2497,8.2331,0.7868,-0.8946,-0.115
1764313064430,3.4756,4.3232,7.8514,0.7868,-0.8946,-0.115
1764313064440,3.4756,4.3232,7.8514,0.7231,-0.42,0.0742
1764313064450,4.0457,4.4124,8.3713,0.7231,-0.42,0.0742
1764313064460,4.0457,4.4124,8.3713,-0.0432,1.8622,0.4033
1764313064470,5.3599,4.8861,8.4144,-0.0432,1.8622,0.4033
1764313064480,5.3599,4.8861,8.4144,-0.0432,1.8622,0.4033
1764313064490,8.0016,6.3302,7.9184,-2.0788,6.5222,0.827
1764313064500,8.0016,6.3302,7.9184,-2.0788,6.5222,0.827
1764313064510,10.2048,8.01,5.9713,-5.3289,12.8731,0.9462
1764313064520,10.2048,8.01,5.9713,-5.3289,12.8731,0.9462
1764313064530,10.2048,8.01,5.9713,-7.9422,17.9918,0.4273
1764313064540,8.2828,7.0511,3.8907,-7.9422,17.9918,0.4273
1764313064550,8.2828,7.0511,3.8907,-7.3635,17.8493,-0.6735
1764313064560,1.3334,3.7729,0.6353,-7.3635,17.8493,-0.6735
1764313064570,1.3334,3.7729,0.6353,-3.3469,10.984,-1.7762
1764313064580,-6.9667,0.4487,-4.1791,-3.3469,10.984,-1.7762
1764313064590,-6.9667,0.4487,-4.1791,0.1518,2.3361,-2.5293
1764313064600,-11.7841,-3.8477,-0.807,0.1518,2.3361,-2.5293
1764313064610,-11.7841,-3.8477,-0.807,0.3661,-0.4791,-1.9812
1764313064620,-11.8576,-6.204,3.9272,0.3661,-0.4791,-1.9812
1764313064630,-11.8576,-6.204,3.9272,0.3661,-0.4791,-1.9812
1764313064640,-10.1091,-4.2508,4.9101,-0.9652,0.8212,-0.9386
1764313064650,-10.1091,-4.2508,4.9101,-0.9652,0.8212,-0.9386
1764313064660,-10.1091,-4.2508,4.9101,-1.0643,0.8189,-0.7996
1764313064670,-10.9131,-4.1073,4.197,-1.0643,0.8189,-0.7996
1764313064680,-10.9131,-4.1073,4.197,-0.5646,-0.5756,-0.8335
1764313064690,-11.3755,-4.4997,5.4239,-0.5646,-0.5756,-0.8335
1764313064700,-11.3755,-4.4997,5.4239,-0.46,-1.1092,-0.5634
1764313064710,-10.8263,-3.9817,7.0337,-0.46,-1.1092,-0.5634
1764313064720,-10.8263,-3.9817,7.0337,-0.4126,-0.9438,-0.2708
1764313064730,-10.4201,-3.2841,6.5504,-0.4126,-0.9438,-0.2708
1764313064740,-10.4201,-3.2841,6.5504,-0.1839,-1.4064,-0.0841
1764313064750,-9.8327,-2.5202,4.9304,-0.1839,-1.4064,-0.0841
1764313064760,-9.8327,-2.5202,4.9304,-0.1839,-1.4064,-0.0841
1764313064770,-8.0925,-2.1523,4.8365,0.2101,-3.0394,-0.0515
1764313064780,-8.0925,-2.1523,4.8365,0.2101,-3.0394,-0.0515
1764313064790,-8.0925,-2.1523,4.8365,0.9224,-5.5074,-0.2268
1764313064800,-6.0921,-2.5639,8.2732,0.9224,-5.5074,-0.2268
1764313064810,-6.0921,-2.5639,8.2732,2.4267,-7.583,-0.4797
1764313064820,-6.387,-3.5145,9.0963,2.4267,-7.583,-0.4797
1764313064830,-6.387,-3.5145,9.0963,3.7,-9.3623,0.0231
1764313064840,-3.2171,-1.9908,9.4582,3.7,-9.3623,0.0231
1764313064850,-3.2171,-1.9908,9.4582,4.4359,-10.283,0.3354
1764313064860,1.1474,0.2118,10.0594,4.4359,-10.283,0.3354
1764313064870,1.1474,0.2118,10.0594,4.2756,-9.4107,0.3247
1764313064880,3.8381,1.8586,11.6351,4.2756,-9.4107,0.3247
1764313064890,3.8381,1.8586,11.6351,2.9422,-5.955,0.3291
1764313064900,4.8754,2.5304,12.216,2.9422,-5.955,0.3291
1764313064910,4.8754,2.5304,12.216,2.9422,-5.955,0.3291
1764313064920,4.8754,2.5304,12.216,1.0073,-1.208,0.418
1764313064930,5.342,2.7691,9.7472,1.0073,-1.208,0.418
1764313064940,5.342,2.7691,9.7472,-0.4632,1.6631,0.2254
1764313064950,4.3502,3.125,7.6235,-0.4632,1.6631,0.2254
1764313064960,4.3502,3.125,7.6235,-0.7239,1.3595,-0.3256
1764313064970,2.5089,2.607,7.0923,-0.7239,1.3595,-0.3256
1764313064980,2.5089,2.607,7.0923,0.1689,-1.0675,-0.7842
1764313064990,1.4405,1.2885,8.5711,0.1689,-1.0675,-0.7842
1764313065000,1.4405,1.2885,8.5711,1.0896,-2.8636,-0.8664
1764313065010,1.3047,0.7196,9.3972,1.0896,-2.8636,-0.8664
1764313065020,1.3047,0.7196,9.3972,1.5905,-3.6951,-0.7114
1764313065030,2.5107,0.9129,9.7448,1.5905,-3.6951,-0.7114
1764313065040,2.5107,0.9129,9.7448,1.5905,-3.6951,-0.7114
1764313065050,4.0235,1.7719,8.5202,1.8815,-3.9069,-0.5936
1764313065060,4.0235,1.7719,8.5202,1.8815,-3.9069,-0.5936
1764313065070,4.0235,1.7719,8.5202,2.1221,-4.4285,-0.739
1764313065080,5.3569,2.7009,7.5021,2.1221,-4.4285,-0.739
1764313065090,5.3569,2.7009,7.5021,2.5919,-5.5689,-1.0704
1764313065100,6.2536,3.186,8.1817,2.5919,-5.5689,-1.0704
1764313065110,6.2536,3.186,8.1817,2.9051,-5.6398,-1.1825
1764313065120,5.5831,3.2243,8.5651,2.9051,-5.6398,-1.1825
1764313065130,5.5831,3.2243,8.5651,2.4238,-3.8706,-0.7576
1764313065140,5.6124,3.5127,7.3615,2.4238,-3.8706,-0.7576
1764313065150,5.6124,3.5127,7.3615,1.4985,-1.4907,-0.1431
1764313065160,6.1286,4.1121,4.3585,1.4985,-1.4907,-0.1431
1764313065170,6.1286,4.1121,4.3585,1.4985,-1.4907,-0.1431
1764313065180,6.1286,4.1121,4.3585,0.5208,0.0319,0.2343
1764313065190,6.8327,4.8814,3.1795,0.5208,0.0319,0.2343
1764313065200,6.8327,4.8814,3.1795,-0.2334,0.5553,0.3036
1764313065210,7.4596,5.3533,3.9565,-0.2334,0.5553,0.3036
1764313065220,7.4596,5.3533,3.9565,-0.4985,0.4688,0.1035
1764313065230,7.4931,5.1338,5.3246,-0.4985,0.4688,0.1035
1764313065240,7.4931,5.1338,5.3246,-0.3516,0.3412,-0.025
1764313065250,6.8082,4.6295,6.0012,-0.3516,0.3412,-0.025
1764313065260,6.8082,4.6295,6.0012,-0.2269,0.5415,0.0559
1764313065270,6.6885,4.617,5.6393,-0.2269,0.5415,0.0559
1764313065280,6.6885,4.617,5.6393,-0.3201,0.8099,0.1752
1764313065290,6.8303,4.4746,5.6327,-0.3201,0.8099,0.1752
1764313065300,6.8303,4.4746,5.6327,-0.4207,1.018,0.2318
1764313065310,6.7418,4.1791,5.8594,-0.4207,1.018,0.2318
1764313065320,6.7418,4.1791,5.8594,-0.4207,1.018,0.2318
1764313065330,6.7418,4.1791,5.8594,-0.4827,1.131,0.2894
1764313065340,6.7783,4.136,6.3141,-0.4827,1.131,0.2894
1764313065350,6.7783,4.136,6.3141,-0.494,1.2226,0.2844
1764313065360,6.6969,4.0235,6.7113,-0.494,1.2226,0.2844
1764313065370,6.6969,4.0235,6.7113,-0.4216,1.2171,0.2123
1764313065380,6.6102,4.1121,6.6317,-0.4216,1.2171,0.2123
1764313065390,6.6102,4.1121,6.6317,-0.2761,0.9714,0.0799
1764313065400,6.3374,4.0947,6.3141,-0.2761,0.9714,0.0799
1764313065410,6.3374,4.0947,6.3141,-0.095,0.5487,-0.0654
1764313065420,5.8355,3.8656,6.3326,-0.095,0.5487,-0.0654
1764313065430,5.8355,3.8656,6.3326,-0.095,0.5487,-0.0654
1764313065440,5.8355,3.8656,6.3326,0.0093,0.1526,-0.0996
1764313065450,5.2893,3.5031,6.6407,0.0093,0.1526,-0.0996
1764313065460,5.3569,3.6197,6.6616,0.1167,-0.0209,-0.0185
1764313065470,5.3569,3.6197,6.6616,0.1167,-0.0209,-0.0185
1764313065480,5.3569,3.6197,6.6616,0.1794,-0.1403,0.0243
1764313065490,5.3803,3.3739,6.8548,0.1794,-0.1403,0.0243
1764313065500,5.3803,3.3739,6.8548,0.1784,0.0238,0.1179
1764313065510,5.0794,3.4062,6.2979,0.1784,0.0238,0.1179
1764313065520,5.0794,3.4062,6.2979,0.0423,0.1298,0.2359
1764313065530,5.3294,3.5354,6.4941,0.0423,0.1298,0.2359
1764313065540,5.3294,3.5354,6.4941,-0.0762,0.2662,0.3596
1764313065550,6.1448,3.749,6.8949,-0.0762,0.2662,0.3596
1764313065560,6.1448,3.749,6.8949,-0.2934,0.6926,0.4078
1764313065570,6.9517,4.2939,6.9171,-0.2934,0.6926,0.4078
1764313065580,6.9517,4.2939,6.9171,-0.2934,0.6926,0.4078
1764313065590,7.072,4.3298,7.4818,-0.5255,0.9496,0.2589
1764313065600,7.072,4.3298,7.4818,-0.5255,0.9496,0.2589
1764313065610,7.072,4.3298,7.4818,-0.3625,0.7333,0.0066
1764313065620,6.8309,4.1922,8.1727,-0.3625,0.7333,0.0066
1764313065630,6.8309,4.1922,8.1727,0.0929,0.2804,-0.2439
1764313065640,6.2082,3.8937,8.6967,0.0929,0.2804,-0.2439
1764313065650,6.2082,3.8937,8.6967,0.6347,-0.1188,-0.3541
1764313065660,5.6172,3.5079,7.9938,0.6347,-0.1188,-0.3541
1764313065670,5.6172,3.5079,7.9938,0.8754,-0.2642,-0.2694
1764313065680,5.5765,3.6885,7.1067,0.8754,-0.2642,-0.2694
1764313065690,5.5765,3.6885,7.1067,0.8754,-0.2642,-0.2694
1764313065700,5.5765,3.6885,7.1067,0.6852,-0.0907,-0.1321
1764313065710,5.8463,4.337,6.5151,0.6852,-0.0907,-0.1321
1764313065720,5.7697,4.5559,5.9408,0.3464,0.1684,-0.1248
1764313065730,5.7697,4.5559,5.9408,0.3464,0.1684,-0.1248
1764313065740,5.7697,4.5559,5.9408,0.0426,0.2897,-0.1562
1764313065750,5.6979,4.5446,6.2489,0.0426,0.2897,-0.1562
1764313065760,5.6979,4.5446,6.2489,-0.082,0.2605,-0.2288
1764313065770,5.3468,3.9021,6.8351,-0.082,0.2605,-0.2288
1764313065780,5.3468,3.9021,6.8351,0.0269,0.144,-0.1982
1764313065790,4.9262,3.7597,6.8782,0.0269,0.144,-0.1982
1764313065800,4.9262,3.7597,6.8782,0.1991,-0.0959,-0.1017
1764313065810,5.1541,3.9464,6.7573,0.1991,-0.0959,-0.1017
1764313065820,5.1541,3.9464,6.7573,0.296,-0.2312,-0.0484
1764313065830,5.4425,4.0792,6.8309,0.296,-0.2312,-0.0484
1764313065840,5.4425,4.0792,6.8309,0.296,-0.2312,-0.0484
1764313065850,5.534,4.2209,6.5886,0.3416,-0.3039,-0.0545
1764313065860,5.534,4.2209,6.5886,0.3416,-0.3039,-0.0545
1764313065870,5.534,4.2209,6.5886,0.4653,-0.598,-0.1294
1764313065880,5.7141,4.5781,6.2704,0.4653,-0.598,-0.1294
1764313065890,5.7141,4.5781,6.2704,0.6263,-1.0359,-0.2757
1764313065900,5.8211,4.684,6.5982,0.6263,-1.0359,-0.2757
1764313065910,5.8211,4.684,6.5982,0.7336,-1.169,-0.3534
1764313065920,5.7936,4.4853,7.0588,0.7336,-1.169,-0.3534
1764313065930,5.7936,4.4853,7.0588,0.7089,-0.7987,-0.296
1764313065940,5.7906,4.5912,6.3571,0.7089,-0.7987,-0.296
1764313065950,5.7906,4.5912,6.3571,0.7089,-0.7987,-0.296
1764313065960,5.8481,5.0172,5.5513,0.5313,-0.4375,-0.256
1764313065970,5.8481,5.0172,5.5513,0.551,-0.7194,-0.3758
1764313065980,4.7366,4.4231,5.6124,0.551,-0.7194,-0.3758
1764313065990,4.7366,4.4231,5.6124,0.551,-0.7194,-0.3758
1764313066000,4.7366,4.4231,5.6124,0.9818,-1.4829,-0.3239
1764313066010,4.3214,4.017,6.481,0.9818,-1.4829,-0.3239
1764313066020,4.3214,4.017,6.481,1.268,-1.3277,0.0478
1764313066030,4.9831,4.3711,5.5597,1.268,-1.3277,0.0478
1764313066040,4.9831,4.3711,5.5597,0.9589,-0.5959,0.337
1764313066050,5.272,4.8353,5.4975,0.9589,-0.5959,0.337
1764313066060,5.272,4.8353,5.4975,0.1509,1.1933,0.7335
1764313066070,7.8963,5.6058,6.4289,0.1509,1.1933,0.7335
1764313066080,7.8963,5.6058,6.4289,-1.6173,4.9605,0.9943
1764313066090,10.934,7.2903,7.6283,-1.6173,4.9605,0.9943
1764313066100,10.934,7.2903,7.6283,-4.4211,11.1125,0.8094
1764313066110,13.3107,8.9432,7.2616,-4.4211,11.1125,0.8094
1764313066120,13.3107,8.9432,7.2616,-4.4211,11.1125,0.8094
1764313066130,13.3107,8.9432,7.2616,-7.8977,18.7881,0.4852
1764313066140,15.9266,10.1611,2.7739,-7.8977,18.7881,0.4852
1764313066150,15.9266,10.1611,2.7739,-10.0015,24.0027,-0.8164
1764313066160,9.4098,5.9169,-1.739,-10.0015,24.0027,-0.8164
1764313066170,9.4098,5.9169,-1.739,-7.2218,19.7193,-2.2151
1764313066180,-7.3633,-0.9559,-8.933,-7.2218,19.7193,-2.2151
1764313066190,-7.3633,-0.9559,-8.933,-0.5473,5.1778,-3.1046
1764313066200,-19.3591,-5.138,-8.5843,-0.5473,5.1778,-3.1046
1764313066210,-19.3591,-5.138,-8.5843,2.6608,-5.7608,-2.0714
1764313066220,-15.0921,-9.0048,5.0901,2.6608,-5.7608,-2.0714
1764313066230,-15.0921,-9.0048,5.0901,0.8864,-4.3011,0.2277
1764313066240,-6.405,-3.6257,9.5743,0.8864,-4.3011,0.2277
1764313066250,-6.405,-3.6257,9.5743,0.8864,-4.3011,0.2277
1764313066260,-5.8062,-1.5936,9.1759,-1.0699,-0.6909,0.2582
1764313066270,-5.8062,-1.5936,9.1759,-1.0699,-0.6909,0.2582
1764313066280,-5.8062,-1.5936,9.1759,-0.6952,-1.0301,-0.3696
1764313066290,-8.4209,-2.6094,8.6536,-0.6952,-1.0301,-0.3696
1764313066300,-8.4209,-2.6094,8.6536,0.7288,-3.5468,-0.3416
1764313066310,-8.2457,-2.6177,8.5137,0.7288,-3.5468,-0.3416
1764313066320,-8.2457,-2.6177,8.5137,1.9587,-5.9619,-0.0338
1764313066330,-5.5149,-1.6014,8.2295,1.9587,-5.9619,-0.0338
1764313066340,-5.5149,-1.6014,8.2295,2.8547,-8.0017,-0.0194
1764313066350,-1.9208,-0.1771,9.8489,2.8547,-8.0017,-0.0194
1764313066360,-1.9208,-0.1771,9.8489,3.3622,-8.6208,-0.23
1764313066370,0.6766,0.5468,11.5496,3.3622,-8.6208,-0.23
1764313066380,0.6766,0.5468,11.5496,3.3622,-8.6208,-0.23
1764313066390,0.6766,0.5468,11.5496,2.8172,-6.9371,-0.3395
1764313066400,1.3238,0.204,11.653,2.8172,-6.9371,-0.3395
1764313066410,1.3238,0.204,11.653,2.2749,-5.7713,-0.2747
1764313066420,2.5729,0.9829,12.329,2.2749,-5.7713,-0.2747
1764313066430,2.5729,0.9829,12.329,3.3494,-6.7514,-0.6153
1764313066440,3.6981,2.5537,11.8768,3.3494,-6.7514,-0.6153
1764313066450,3.6981,2.5537,11.8768,5.0497,-7.9196,-1.0004
1764313066460,3.615,2.9862,10.1868,5.0497,-7.9196,-1.0004
1764313066470,3.615,2.9862,10.1868,4.207,-5.3066,-0.5418
1764313066480,4.4285,2.9192,6.874,4.207,-5.3066,-0.5418
1764313066490,4.4285,2.9192,6.874,1.4972,-1.2202,0.2208
1764313066500,5.8367,4.1312,5.9228,1.4972,-1.2202,0.2208
1764313066510,5.8367,4.1312,5.9228,1.4972,-1.2202,0.2208
1764313066520,5.665,4.3035,5.7697,-0.3995,1.4846,0.4079
1764313066530,5.665,4.3035,5.7697,-0.3995,1.4846,0.4079
1764313066540,5.665,4.3035,5.7697,-0.6133,1.4584,0.1524
1764313066550,4.7809,3.8572,6.0203,-0.6133,1.4584,0.1524
1764313066560,4.7809,3.8572,6.0203,0.0672,0.0776,-0.0727
1764313066570,4.6385,3.6437,7.0319,0.0672,0.0776,-0.0727
1764313066580,4.6385,3.6437,7.0319,0.4581,-0.5357,-0.1523
1764313066590,4.4076,3.3087,7.3729,0.4581,-0.5357,-0.1523
1764313066600,4.4076,3.3087,7.3729,0.2398,-0.1023,0.0185
1764313066610,5.0201,3.4666,7.212,0.2398,-0.1023,0.0185
1764313066620,5.0201,3.4666,7.212,-0.2763,0.5993,0.139
1764313066630,5.7081,3.655,7.392,-0.2763,0.5993,0.139
1764313066640,5.7081,3.655,7.392,-0.5258,0.8628,0.0605
1764313066650,4.8993,3.4947,8.5962,-0.5258,0.8628,0.0605
1764313066660,4.8993,3.4947,8.5962,-0.5258,0.8628,0.0605
1764313066670,3.6018,2.7936,7.6223,-0.2199,1.0082,-0.0011
1764313066680,3.6018,2.7936,7.6223,-0.2199,1.0082,-0.0011
1764313066690,3.6018,2.7936,7.6223,-0.0034,0.5226,0.3508
1764313066700,3.865,3.7507,7.48,-0.0034,0.5226,0.3508
1764313066710,3.865,3.7507,7.48,-0.0437,0.1538,0.4559
1764313066720,4.8126,3.664,8.4945,-0.0437,0.1538,0.4559
1764313066730,4.8126,3.664,8.4945,0.1013,0.071,0.3256
1764313066740,5.2947,3.7825,8.5059,0.1013,0.071,0.3256
1764313066750,5.2947,3.7825,8.5059,0.2918,-0.056,0.1289
1764313066760,5.1051,3.999,7.8485,0.2918,-0.056,0.1289
1764313066770,5.1051,3.999,7.8485,0.305,-0.1292,-0.0174
1764313066780,4.8174,3.8716,7.5105,0.305,-0.1292,-0.0174
1764313066790,4.8174,3.8716,7.5105,0.305,-0.1292,-0.0174
1764313066800,4.9531,3.8973,7.7354,0.1246,0.047,-0.035
1764313066810,4.9531,3.8973,7.7354,0.1246,0.047,-0.035
1764313066820,4.9531,3.8973,7.7354,0.0012,0.2552,-0.0793
1764313066830,4.736,3.8076,7.5769,0.0012,0.2552,-0.0793
1764313066840,4.736,3.8076,7.5769,0.0043,0.2147,-0.1254
1764313066850,4.267,3.4917,7.6439,0.0043,0.2147,-0.1254
1764313066860,4.267,3.4917,7.6439,0.0733,0.0817,-0.0899
1764313066870,3.95,3.4313,7.2132,0.0733,0.0817,-0.0899
1764313066880,3.95,3.4313,7.2132,0.0907,-0.082,-0.0154
1764313066890,4.0822,3.5354,7.1462,0.0907,-0.082,-0.0154
1764313066900,4.0822,3.5354,7.1462,0.0305,-0.2117,0.0067
1764313066910,4.7061,3.6287,7.9508,0.0305,-0.2117,0.0067
1764313066920,4.7061,3.6287,7.9508,0.0305,-0.2117,0.0067
1764313066930,5.0841,3.7663,7.882,0.0519,-0.111,-0.0116
1764313066940,5.0841,3.7663,7.882,0.0519,-0.111,-0.0116
1764313066950,5.0841,3.7663,7.882,-0.0507,0.084,-0.0736
1764313066960,4.7509,3.88,7.6361,-0.0507,0.084,-0.0736
1764313066970,4.7509,3.88,7.6361,-0.1578,0.179,-0.0985
1764313066980,4.328,3.8417,7.6367,-0.1578,0.179,-0.0985
1764313066990,4.328,3.8417,7.6367,-0.1846,0.0712,-0.1193
1764313067000,4.5529,3.6592,8.549,-0.1846,0.0712,-0.1193
1764313067010,4.5529,3.6592,8.549,0.0342,-0.1093,-0.1526
1764313067020,4.7103,3.6622,8.531,0.0342,-0.1093,-0.1526
1764313067030,4.7103,3.6622,8.531,0.1839,-0.1683,-0.1975
1764313067040,4.4351,3.6658,8.0716,0.1839,-0.1683,-0.1975
1764313067050,4.4351,3.6658,8.0716,0.1367,-0.1313,-0.1749
1764313067060,4.3358,3.6736,7.946,0.1367,-0.1313,-0.1749
1764313067070,4.3358,3.6736,7.946,0.1367,-0.1313,-0.1749
1764313067080,4.3358,3.6736,7.946,-0.027,0.0893,-0.1176
1764313067090,4.2221,3.6227,8.0465,-0.027,0.0893,-0.1176
1764313067100,4.2221,3.6227,8.0465,-0.0745,0.1651,-0.0728
1764313067110,4.0947,3.7627,8.3539,-0.0745,0.1651,-0.0728
1764313067120,4.0947,3.7627,8.3539,0.0841,0.0011,-0.0678
1764313067130,4.2814,3.7454,8.4066,0.0841,0.0011,-0.0678
1764313067140,4.2814,3.7454,8.4066,0.2393,-0.0935,-0.0971
1764313067150,4.4297,3.7406,8.0321,0.2393,-0.0935,-0.0971
1764313067160,4.4297,3.7406,8.0321,0.2242,-0.0744,-0.1095
1764313067170,4.5093,3.8746,8.1135,0.2242,-0.0744,-0.1095
1764313067180,4.5093,3.8746,8.1135,0.2169,-0.0205,-0.1492
1764313067190,4.2544,3.722,8.0608,0.2169,-0.0205,-0.1492
1764313067200,4.2544,3.722,8.0608,0.2169,-0.0205,-0.1492
1764313067210,4.1958,3.7932,7.7462,0.3236,-0.1573,-0.146
1764313067220,4.1958,3.7932,7.7462,0.3236,-0.1573,-0.146
1764313067230,4.1958,3.7932,7.7462,0.3522,-0.2373,-0.113
1764313067240,4.282,3.9703,7.5661,0.3522,-0.2373,-0.113
1764313067250,4.282,3.9703,7.5661,0.2728,-0.1333,-0.0768
1764313067260,4.3902,4.0726,7.6367,0.2728,-0.1333,-0.0768
1764313067270,4.3902,4.0726,7.6367,0.2364,-0.1074,-0.0771
1764313067280,4.2114,3.9637,7.4082,0.2364,-0.1074,-0.0771
1764313067290,4.2114,3.9637,7.4082,0.3543,-0.4432,-0.0983
1764313067300,2.9414,3.7298,7.4435,0.3543,-0.4432,-0.0983
1764313067310,2.9414,3.7298,7.4435,0.7236,-1.1469,0.0214
1764313067320,3.347,3.3464,8.5663,0.7236,-1.1469,0.0214
1764313067330,3.347,3.3464,8.5663,0.7236,-1.1469,0.0214
1764313067340,3.347,3.3464,8.5663,1.1246,-1.0657,0.2973
1764313067350,4.2724,3.4493,8.1835,1.1246,-1.0657,0.2973
1764313067360,4.2724,3.4493,8.1835,1.2046,-0.7845,0.3654
1764313067370,4.6624,3.6814,8.8582,1.2046,-0.7845,0.3654
1764313067380,4.6624,3.6814,8.8582,1.0571,0.2677,0.6089
1764313067390,6.6102,4.5428,10.0086,1.0571,0.2677,0.6089
1764313067400,6.6102,4.5428,10.0086,0.0777,3.2373,0.8028
1764313067410,10.5559,6.2261,9.4726,0.0777,3.2373,0.8028
1764313067420,10.5559,6.2261,9.4726,-1.9736,7.9886,0.5032
1764313067430,13.5625,8.7805,8.3833,-1.9736,7.9886,0.5032
1764313067440,13.5625,8.7805,8.3833,-4.6194,14.6269,-0.1611
1764313067450,14.9851,9.3482,2.1266,-4.6194,14.6269,-0.1611
1764313067460,14.9851,9.3482,2.1266,-6.7603,18.7664,-1.1205
1764313067470,12.0855,8.3348,-1.4728,-6.7603,18.7664,-1.1205
1764313067480,12.0855,8.3348,-1.4728,-6.7603,18.7664,-1.1205
1764313067490,12.0855,8.3348,-1.4728,-6.0799,17.8985,-2.3414
1764313067500,4.5368,5.7009,-7.0331,-6.0799,17.8985,-2.3414
1764313067510,4.5368,5.7009,-7.0331,-2.9803,10.8447,-3.6666
1764313067520,-7.4381,1.0642,-11.8349,-2.9803,10.8447,-3.6666
1764313067530,-7.4381,1.0642,-11.8349,-0.3219,1.1226,-4.3695
1764313067540,-16.873,-9.0526,-3.9494,-0.3219,1.1226,-4.3695
1764313067550,-16.873,-9.0526,-3.9494,-0.1626,-3.3819,-2.5878
1764313067560,-15.0766,-10.2909,8.7039,-0.1626,-3.3819,-2.5878
1764313067570,-15.0766,-10.2909,8.7039,-0.744,-2.0426,-0.9207
1764313067580,-12.0467,-7.5266,11.455,-0.744,-2.0426,-0.9207
1764313067590,-12.0467,-7.5266,11.455,-0.6927,-0.8204,-0.4494
1764313067600,-12.0467,-7.5266,11.455,-0.6927,-0.8204,-0.4494
1764313067610,-11.8953,-5.2869,9.7597,-0.6927,-0.8204,-0.4494
1764313067620,-12.0646,-4.1809,9.4146,0.1758,-1.8841,-0.3325
1764313067630,-12.0646,-4.1809,9.4146,0.1758,-1.8841,-0.3325
1764313067640,-12.0646,-4.1809,9.4146,1.1894,-3.3843,0.0151
1764313067650,-10.9208,-3.3918,8.4646,1.1894,-3.3843,0.0151
1764313067660,-10.9208,-3.3918,8.4646,1.8583,-4.6786,0.5069
1764313067670,-8.1105,-1.9466,8.1194,1.8583,-4.6786,0.5069
1764313067680,-8.1105,-1.9466,8.1194,2.4667,-5.9636,0.6632
1764313067690,-4.6325,-0.6449,9.9529,2.4667,-5.9636,0.6632
1764313067700,-4.6325,-0.6449,9.9529,2.6353,-5.8426,0.482
1764313067710,-2.9109,-0.3505,10.7695,2.6353,-5.8426,0.482
1764313067720,-2.9109,-0.3505,10.7695,2.463,-5.2061,0.3328
1764313067730,-2.5011,-0.4008,10.9783,2.463,-5.2061,0.3328
1764313067740,-2.5011,-0.4008,10.9783,2.463,-5.2061,0.3328
1764313067750,-2.5011,-0.4008,10.9783,2.9931,-5.7811,0.2937
1764313067760,-1.7695,0.1083,10.1342,2.9931,-5.7811,0.2937
1764313067770,-1.7695,0.1083,10.1342,4.3086,-7.4967,0.1988
1764313067780,0.1232,1.3992,8.9892,4.3086,-7.4967,0.1988
1764313067790,0.1232,1.3992,8.9892,4.9246,-8.0523,0.1541
1764313067800,3.0245,2.9157,8.6273,4.9246,-8.0523,0.1541
1764313067810,3.0245,2.9157,8.6273,4.0091,-6.1432,0.1501
1764313067820,4.4219,3.399,7.3813,4.0091,-6.1432,0.1501
1764313067830,4.4219,3.399,7.3813,2.8254,-4.3643,0.0009
1764313067840,3.883,3.722,7.0193,2.8254,-4.3643,0.0009
1764313067850,3.883,3.722,7.0193,2.8254,-4.3643,0.0009
1764313067860,4.3089,3.8812,6.9488,2.7536,-3.9444,-0.0773
1764313067870,4.3089,3.8812,6.9488,2.7536,-3.9444,-0.0773
1764313067880,5.3151,4.3328,5.5896,2.2206,-2.5049,0.0547
1764313067890,5.3151,4.3328,5.5896,2.2206,-2.5049,0.0547
1764313067900,5.3151,4.3328,5.5896,0.8318,-0.392,0.2347
1764313067910,6.1065,4.8413,5.1015,0.8318,-0.392,0.2347
1764313067920,6.1065,4.8413,5.1015,-0.2482,0.9223,0.1753
1764313067930,5.5693,5.1242,5.2152,-0.2482,0.9223,0.1753
1764313067940,5.5693,5.1242,5.2152,-0.4549,0.9067,-0.0118
1764313067950,4.7312,4.9819,5.3109,-0.4549,0.9067,-0.0118
1764313067960,4.7312,4.9819,5.3109,-0.3183,0.3338,-0.0747
1764313067970,4.6134,4.6505,6.4959,-0.3183,0.3338,-0.0747
1764313067980,4.6134,4.6505,6.4959,-0.1048,-0.006,-0.0637
1764313067990,5.0596,4.5541,7.2933,-0.1048,-0.006,-0.0637
1764313068000,5.0596,4.5541,7.2933,-0.1048,-0.006,-0.0637
1764313068010,5.0596,4.5541,7.2933,-0.0811,0.1856,-0.0528
1764313068020,5.8068,4.7827,7.1707,-0.0811,0.1856,-0.0528
1764313068030,5.8068,4.7827,7.1707,-0.387,0.6167,-0.1171
1764313068040,5.5926,4.8018,7.4752,-0.387,0.6167,-0.1171
1764313068050,5.5926,4.8018,7.4752,-0.5886,0.9421,-0.1746
1764313068060,3.8542,3.725,8.1739,-0.5886,0.9421,-0.1746
1764313068070,3.8542,3.725,8.1739,-0.5759,1.6011,0.1854
1764313068080,3.7932,4.3741,7.1964,-0.5759,1.6011,0.1854
1764313068090,3.7932,4.3741,7.1964,-1.0704,2.348,0.4957
1764313068100,4.1001,4.6917,7.011,-1.0704,2.348,0.4957
1764313068110,4.1001,4.6917,7.011,-1.2639,1.9847,0.3369
1764313068120,4.1049,4.0277,9.0054,-1.2639,1.9847,0.3369
1764313068130,4.1049,4.0277,9.0054,-0.4502,0.9954,0.0328
1764313068140,3.6215,3.8638,9.2046,-0.4502,0.9954,0.0328
1764313068150,3.6215,3.8638,9.2046,-0.4502,0.9954,0.0328
1764313068160,3.6215,3.8638,9.2046,0.285,0.0849,-0.1523
1764313068170,2.7356,3.4875,8.3019,0.285,0.0849,-0.1523
1764313068180,2.7356,3.4875,8.3019,0.4013,-0.1151,-0.0458
1764313068190,2.7314,3.859,7.7737,0.4013,-0.1151,-0.0458
1764313068200,2.7314,3.859,7.7737,0.2056,-0.0803,0.0764
1764313068210,3.1663,4.1671,7.66,0.2056,-0.0803,0.0764
1764313068220,3.1663,4.1671,7.66,0.1225,-0.1765,0.0771
1764313068230,3.661,4.2341,8.0219,0.1225,-0.1765,0.0771
1764313068240,3.661,4.2341,8.0219,0.1213,-0.1591,0.0145
1764313068250,3.8656,4.1934,8.0865,0.1213,-0.1591,0.0145
1764313068260,3.8656,4.1934,8.0865,0.1213,-0.1591,0.0145
1764313068270,3.5157,4.0187,7.6714,0.0428,0.0608,-0.0455
1764313068280,3.5157,4.0187,7.6714,0.0428,0.0608,-0.0455
1764313068290,3.2961,3.7412,8.1852,-0.0628,0.087,-0.0475
1764313068300,3.2961,3.7412,8.1852,-0.0628,0.087,-0.0475
1764313068310,3.2961,3.7412,8.1852,0.0018,-0.0551,-0.0063
1764313068320,2.9372,3.5498,8.0369,0.0018,-0.0551,-0.0063
1764313068330,2.9372,3.5498,8.0369,0.1242,-0.2767,0.0979
1764313068340,2.6261,3.5719,7.6792,0.1242,-0.2767,0.0979
1764313068350,2.6261,3.5719,7.6792,0.1704,-0.5154,0.2159
1764313068360,2.8415,3.7507,7.5266,0.1704,-0.5154,0.2159
1764313068370,2.8415,3.7507,7.5266,0.2071,-0.6698,0.3183
1764313068380,3.8889,4.0391,7.529,0.2071,-0.6698,0.3183
1764313068390,3.8889,4.0391,7.529,0.0915,-0.6103,0.2662
1764313068400,4.9178,4.3561,8.2092,0.0915,-0.6103,0.2662
1764313068410,4.9178,4.3561,8.2092,0.0915,-0.6103,0.2662
1764313068420,5.0949,4.6457,8.5472,-0.02,-0.2728,0.1277
1764313068430,5.0949,4.6457,8.5472,-0.02,-0.2728,0.1277
1764313068440,5.0949,4.6457,8.5472,-0.2352,0.17,-0.0003
1764313068450,5.6806,4.5045,9.6048,-0.2352,0.17,-0.0003
1764313068460,5.6806,4.5045,9.6048,-0.1297,0.416,-0.2246
1764313068470,4.7892,4.3944,9.3159,-0.1297,0.416,-0.2246
1764313068480,4.7892,4.3944,9.3159,0.1713,0.2833,-0.3337
1764313068490,3.4953,4.1874,7.9519,0.1713,0.2833,-0.3337
1764313068500,3.4953,4.1874,7.9519,0.2715,-0.0874,-0.2373
1764313068510,2.9593,4.0235,7.7898,0.2715,-0.0874,-0.2373
1764313068520,2.9593,4.0235,7.7898,0.2272,-0.1594,-0.0374
1764313068530,3.4564,3.9595,7.8544,0.2272,-0.1594,-0.0374
1764313068540,3.4564,3.9595,7.8544,0.1318,-0.0544,0.0441
1764313068550,4.1127,4.1157,8.0889,0.1318,-0.0544,0.0441
1764313068560,4.1127,4.1157,8.0889,0.1318,-0.0544,0.0441
1764313068570,4.1127,4.1157,8.0889,0.1203,0.0519,-0.0202
1764313068580,4.0074,4.0187,8.0411,0.1203,0.0519,-0.0202
1764313068590,4.0074,4.0187,8.0411,0.1376,0.0809,-0.0594
1764313068600,3.801,4.0822,7.6965,0.1376,0.0809,-0.0594
1764313068610,3.801,4.0822,7.6965,0.1306,-0.0675,-0.0655
1764313068620,3.7005,4.1683,7.8467,0.1306,-0.0675,-0.0655
1764313068630,3.7005,4.1683,7.8467,0.1002,-0.1306,-0.0483
1764313068640,3.9326,4.404,8.2026,0.1002,-0.1306,-0.0483
1764313068650,3.9326,4.404,8.2026,0.1491,-0.2222,-0.1174
1764313068660,4.0104,4.2909,8.3366,0.1491,-0.2222,-0.1174
1764313068670,4.0104,4.2909,8.3366,0.359,-0.4446,-0.2193
1764313068680,3.4714,4.1874,8.1248,0.359,-0.4446,-0.2193
1764313068690,3.4714,4.1874,8.1248,0.359,-0.4446,-0.2193
1764313068700,3.4714,4.1874,8.1248,0.595,-0.6917,-0.2164
1764313068710,2.2128,4.1079,7.986,0.595,-0.6917,-0.2164
1764313068720,2.2128,4.1079,7.986,0.6955,-0.3338,0.0927
1764313068730,3.3577,4.3854,6.658,0.6955,-0.3338,0.0927
1764313068740,3.3577,4.3854,6.658,0.4614,-0.2999,0.1746
1764313068750,3.6257,4.0983,7.1803,0.4614,-0.2999,0.1746
1764313068760,3.6257,4.0983,7.1803,0.7961,-0.9368,0.1952
1764313068770,3.8465,4.1061,8.0668,0.7961,-0.9368,0.1952
1764313068780,3.8465,4.1061,8.0668,1.4288,-1.5751,0.1182
1764313068790,3.4965,3.9613,7.5882,1.4288,-1.5751,0.1182
1764313068800,3.4965,3.9613,7.5882,1.4288,-1.5751,0.1182
1764313068810,3.4122,3.9069,5.8834,1.6953,-1.5908,0.1903
1764313068820,3.4122,3.9069,5.8834,1.6953,-1.5908,0.1903
1764313068830,4.5799,4.7312,5.2415,1.3564,-1.0748,0.4664
1764313068840,4.5799,4.7312,5.2415,1.3564,-1.0748,0.4664
1764313068850,4.5799,4.7312,5.2415,0.63,-0.1378,0.6351
1764313068860,7.4548,5.8929,6.7011,0.63,-0.1378,0.6351
1764313068870,7.4548,5.8929,6.7011,-0.5324,2.4128,0.4678
1764313068880,11.8624,8.0782,8.3258,-0.5324,2.4128,0.4678
1764313068890,11.8624,8.0782,8.3258,-2.8227,7.9231,-0.2604
1764313068900,13.6409,8.9575,6.1657,-2.8227,7.9231,-0.2604
1764313068910,13.6409,8.9575,6.1657,-5.7492,14.2745,-1.0734
1764313068920,15.4798,9.6156,4.2449,-5.7492,14.2745,-1.0734
1764313068930,15.4798,9.6156,4.2449,-7.107,18.6268,-2.4071
1764313068940,14.6716,8.598,-0.6221,-7.107,18.6268,-2.4071
1764313068950,14.6716,8.598,-0.6221,-7.107,18.6268,-2.4071
1764313068960,14.6716,8.598,-0.6221,-5.6856,17.5598,-4.2564
1764313068970,2.991,3.2895,-9.067,-5.6856,17.5598,-4.2564
1764313068980,2.991,3.2895,-9.067,-2.7771,10.2053,-5.2618
1764313068990,-12.4331,-3.2841,-13.1815,-2.7771,10.2053,-5.2618
1764313069000,-12.4331,-3.2841,-13.1815,-0.8913,0.7495,-4.6082
1764313069010,-17.7009,-9.4373,-0.0514,-0.8913,0.7495,-4.6082
1764313069020,-17.7009,-9.4373,-0.0514,0.0279,-3.5331,-2.5181
1764313069030,-13.7366,-9.405,11.7996,0.0279,-3.5331,-2.5181
1764313069040,-13.7366,-9.405,11.7996,0.2422,-2.2249,-0.9613
1764313069050,-11.0088,-6.6185,9.7232,0.2422,-2.2249,-0.9613
1764313069060,-11.0088,-6.6185,9.7232,-0.4281,-0.9018,-0.5713
1764313069070,-10.8808,-4.8299,8.9922,-0.4281,-0.9018,-0.5713
1764313069080,-10.8808,-4.8299,8.9922,-0.4281,-0.9018,-0.5713
1764313069090,-11.2451,-4.2078,10.334,-0.3372,-1.3326,-0.4841
1764313069100,-11.2451,-4.2078,10.334,-0.3372,-1.3326,-0.4841
1764313069110,-10.876,-3.5432,9.0784,0.5704,-2.3654,-0.1684
1764313069120,-10.876,-3.5432,9.0784,0.5704,-2.3654,-0.1684
1764313069130,-10.876,-3.5432,9.0784,1.4212,-3.7247,0.3378
1764313069140,-8.4736,-2.0471,7.1755,1.4212,-3.7247,0.3378
1764313069150,-8.4736,-2.0471,7.1755,2.2614,-6.0364,0.46
1764313069160,-5.5723,-0.7591,6.8991,2.2614,-6.0364,0.46
1764313069170,-5.5723,-0.7591,6.8991,3.3451,-8.889,0.1715
1764313069180,-2.7009,-0.3559,10.0086,3.3451,-8.889,0.1715
1764313069190,-2.7009,-0.3559,10.0086,4.1224,-9.8688,0.0034
1764313069200,-0.1226,-0.2758,12.8812,4.1224,-9.8688,0.0034
1764313069210,-0.1226,-0.2758,12.8812,4.3677,-8.7526,-0.0405
1764313069220,-0.1226,-0.2758,12.8812,4.3677,-8.7526,-0.0405
1764313069230,1.3555,0.2644,11.9324,4.3677,-8.7526,-0.0405
1764313069240,3.2148,2.0877,9.6562,4.5235,-7.6262,0.0087
1764313069250,3.2148,2.0877,9.6562,4.5235,-7.6262,0.0087
1764313069260,3.2148,2.0877,9.6562,4.0378,-6.044,0.0017
1764313069270,4.9645,3.5204,8.2325,4.0378,-6.044,0.0017
1764313069280,4.9645,3.5204,8.2325,2.6087,-3.1493,-0.0951
1764313069290,5.9486,3.7388,6.518,2.6087,-3.1493,-0.0951
1764313069300,5.9486,3.7388,6.518,1.0847,-0.6648,-0.2874
1764313069310,4.1186,4.4411,4.4859,1.0847,-0.6648,-0.2874
1764313069320,4.1186,4.4411,4.4859,1.0847,-0.6648,-0.2874
1764313069330,3.7938,3.7819,4.3854,0.3551,-0.6,-0.3106
1764313069340,3.7938,3.7819,4.3854,0.4934,-1.8259,-0.379
1764313069350,4.1617,3.6359,6.253,0.4934,-1.8259,-0.379
1764313069360,4.1617,3.6359,6.253,0.4934,-1.8259,-0.379
1764313069370,4.6881,3.3272,8.6782,0.7416,-2.405,-0.329
1764313069380,4.6881,3.3272,8.6782,0.7416,-2.405,-0.329
1764313069390,4.6881,3.3272,8.6782,0.9511,-1.878,-0.179
1764313069400,4.8754,2.7248,8.9527,0.9511,-1.878,-0.179
1764313069410,4.8754,2.7248,8.9527,1.02,-1.0269,0.1275
1764313069420,5.4383,3.5318,7.4112,1.02,-1.0269,0.1275
1764313069430,5.4383,3.5318,7.4112,0.8913,-0.3919,0.2902
1764313069440,5.9456,4.5906,5.3581,0.8913,-0.3919,0.2902
1764313069450,5.9456,4.5906,5.3581,0.5806,-0.2715,0.2384
1764313069460,6.3057,5.0788,4.9304,0.5806,-0.2715,0.2384
1764313069470,6.3057,5.0788,4.9304,0.1946,-0.1261,0.1153
1764313069480,6.2788,5.1027,5.2098,0.1946,-0.1261,0.1153
1764313069490,6.2788,5.1027,5.2098,0.1946,-0.1261,0.1153
1764313069500,6.2788,5.1027,5.2098,-0.1407,0.1048,0.0038
1764313069510,5.6722,4.7456,5.8211,-0.1407,0.1048,0.0038
1764313069520,5.6722,4.7456,5.8211,-0.279,0.2943,0.0324
1764313069530,5.4891,4.4207,6.6102,-0.279,0.2943,0.0324
1764313069540,5.4891,4.4207,6.6102,-0.2714,0.4969,0.1414
1764313069550,5.604,4.3454,6.6873,-0.2714,0.4969,0.1414
1764313069560,5.604,4.3454,6.6873,-0.2957,0.6877,0.1953
1764313069570,5.8732,4.3328,6.8369,-0.2957,0.6877,0.1953
1764313069580,5.8732,4.3328,6.8369,-0.3264,0.7895,0.1768
1764313069590,5.6853,4.2371,6.7131,-0.3264,0.7895,0.1768
1764313069600,5.6853,4.2371,6.7131,-0.297,0.6367,0.1292
1764313069610,5.6148,4.4189,6.743,-0.297,0.6367,0.1292
1764313069620,5.6148,4.4189,6.743,-0.1912,0.2874,0.0298
1764313069630,5.0985,4.2335,6.8662,-0.1912,0.2874,0.0298
1764313069640,5.0985,4.2335,6.8662,-0.1912,0.2874,0.0298
1764313069650,5.0985,4.2335,6.8662,-0.0735,0.0695,-0.0087
1764313069660,4.6116,4.0881,6.7442,-0.0735,0.0695,-0.0087
1764313069670,4.6116,4.0881,6.7442,-0.1092,0.0003,0.0605
1764313069680,4.6241,3.7968,6.9488,-0.1092,0.0003,0.0605
1764313069690,4.6241,3.7968,6.9488,-0.1805,0.0956,0.1465
1764313069700,4.6977,3.6861,6.9535,-0.1805,0.0956,0.1465
1764313069710,4.6977,3.6861,6.9535,-0.2668,0.2239,0.254
1764313069720,5.3611,3.859,7.4865,-0.2668,0.2239,0.254
1764313069730,5.3611,3.859,7.4865,-0.2668,0.2239,0.254
