Timestamp,ax,ay,az,gx,gy,gz
1764313070220,3.4421,4.5446,7.6295,0.3868,-0.0747,-0.1407
1764313070230,3.4421,4.5446,7.6295,0.3517,-0.1856,-0.1509
1764313070240,3.2955,4.4016,7.9358,0.3517,-0.1856,-0.1509
1764313070250,3.2955,4.4016,7.9358,0.3961,-0.2587,-0.0985
1764313070260,3.1328,4.4507,7.9633,0.3961,-0.2587,-0.0985
1764313070270,3.1328,4.4507,7.9633,0.4152,-0.3427,0.0205
1764313070280,3.4457,4.5769,8.129,0.4152,-0.3427,0.0205
1764313070290,3.4457,4.5769,8.129,0.4165,-0.2295,0.058
1764313070300,3.8441,4.8365,7.9059,0.4165,-0.2295,0.058
1764313070310,3.8441,4.8365,7.9059,0.4165,-0.2295,0.058
1764313070320,3.7741,4.8993,7.5488,0.4032,-0.1668,0.0327
1764313070330,3.7741,4.8993,7.5488,0.4032,-0.1668,0.0327
1764313070340,3.7741,4.8993,7.5488,0.3128,-0.1512,0.0469
1764313070350,3.6503,4.7342,7.7803,0.3128,-0.1512,0.0469
1764313070360,3.6503,4.7342,7.7803,0.2178,0.0157,0.1052
1764313070370,3.9547,4.9131,8.193,0.2178,0.0157,0.1052
1764313070380,3.9547,4.9131,8.193,0.2275,0.1607,0.0764
1764313070390,3.9613,4.9089,8.0782,0.2275,0.1607,0.0764
1764313070400,3.9613,4.9089,8.0782,0.3824,0.016,0.0139
1764313070410,3.679,4.9358,7.6905,0.3824,0.016,0.0139
1764313070420,3.679,4.9358,7.6905,0.4785,-0.1223,-0.0226
1764313070430,3.5719,4.9741,7.3525,0.4785,-0.1223,-0.0226
1764313070440,3.5719,4.9741,7.3525,0.4785,-0.1223,-0.0226
1764313070450,3.3416,4.7797,7.6062,0.4895,-0.2564,-0.0124
1764313070460,3.3416,4.7797,7.6062,0.4895,-0.2564,-0.0124
1764313070470,3.3416,4.7797,7.6062,0.4869,-0.1093,0.093
1764313070480,3.7962,4.928,7.9382,0.4869,-0.1093,0.093
1764313070490,3.7962,4.928,7.9382,0.0263,1.1703,0.2865
1764313070500,6.481,5.7428,9.4074,0.0263,1.1703,0.2865
1764313070510,6.481,5.7428,9.4074,-1.5895,5.4976,0.3065
1764313070520,9.9954,7.9029,7.6032,-1.5895,5.4976,0.3065
1764313070530,9.9954,7.9029,7.6032,-4.4098,11.6782,-0.1651
1764313070540,12.0963,9.868,4.2748,-4.4098,11.6782,-0.1651
1764313070550,12.0963,9.868,4.2748,-7.1387,17.231,-1.0044
1764313070560,11.4281,8.3384,1.535,-7.1387,17.231,-1.0044
1764313070570,11.4281,8.3384,1.535,-7.2609,18.5313,-2.352
1764313070580,1.535,3.5498,-3.2985,-7.2609,18.5313,-2.352
1764313070590,1.535,3.5498,-3.2985,-7.2609,18.5313,-2.352
1764313070600,1.535,3.5498,-3.2985,-3.5114,11.866,-3.2206
1764313070610,-11.3755,-0.667,-10.5954,-3.5114,11.866,-3.2206
1764313070620,-11.3755,-0.667,-10.5954,0.1636,0.726,-3.4239
1764313070630,-18.0802,-7.3908,-3.5509,0.1636,0.726,-3.4239
1764313070640,-18.0802,-7.3908,-3.5509,0.9985,-4.8182,-1.531
1764313070650,-12.5898,-7.3143,8.7835,0.9985,-4.8182,-1.531
1764313070660,-12.5898,-7.3143,8.7835,0.0263,-2.7329,-0.1758
1764313070670,-7.9059,-2.9767,9.9111,0.0263,-2.7329,-0.1758
1764313070680,-7.9059,-2.9767,9.9111,-0.6778,-0.9068,-0.3832
1764313070690,-9.4074,-2.4359,8.5436,-0.6778,-0.9068,-0.3832
1764313070700,-9.4074,-2.4359,8.5436,0.0683,-2.271,-0.4898
1764313070710,-10.4566,-2.2146,7.9807,0.0683,-2.271,-0.4898
1764313070720,-10.4566,-2.2146,7.9807,0.0683,-2.271,-0.4898
1764313070730,-9.2189,-1.6068,6.9697,1.4476,-5.0212,-0.2214
1764313070740,-9.2189,-1.6068,6.9697,1.4476,-5.0212,-0.2214
1764313070750,-9.2189,-1.6068,6.9697,2.8014,-8.2106,0.0686
1764313070760,-6.5192,-0.6173,7.3555,2.8014,-8.2106,0.0686
1764313070770,-6.5192,-0.6173,7.3555,4.1423,-11.0899,0.2002
1764313070780,-1.8281,0.4391,8.4431,4.1423,-11.0899,0.2002
1764313070790,-1.8281,0.4391,8.4431,5.0147,-12.6194,0.1397
1764313070800,3.5976,2.5316,12.2883,5.0147,-12.6194,0.1397
1764313070810,3.5976,2.5316,12.2883,5.2789,-11.208,-0.0374
1764313070820,6.0126,3.2465,15.4923,5.2789,-11.208,-0.0374
1764313070830,6.0126,3.2465,15.4923,3.9644,-5.9605,0.1695
1764313070840,6.4576,3.7196,11.5585,3.9644,-5.9605,0.1695
1764313070850,6.4576,3.7196,11.5585,3.9644,-5.9605,0.1695
1764313070860,6.4576,3.7196,11.5585,1.8639,-1.0974,0.3651
1764313070870,6.1513,5.2002,7.0331,1.8639,-1.0974,0.3651
1764313070880,6.1513,5.2002,7.0331,0.5791,0.8213,0.1663
1764313070890,4.9723,5.1266,5.4592,0.5791,0.8213,0.1663
1764313070900,4.9723,5.1266,5.4592,0.2984,0.5337,-0.1917
1764313070910,3.1813,4.2532,5.7685,0.2984,0.5337,-0.1917
1764313070920,3.1813,4.2532,5.7685,0.7362,-0.7088,-0.2645
1764313070930,2.7266,3.3374,7.1928,0.7362,-0.7088,-0.2645
1764313070940,2.7266,3.3374,7.1928,1.0989,-1.1852,-0.1229
1764313070950,3.0042,3.3135,7.4369,1.0989,-1.1852,-0.1229
1764313070960,3.0042,3.3135,7.4369,1.0009,-0.7927,0.1313
1764313070970,3.7005,3.6407,6.2548,1.0009,-0.7927,0.1313
1764313070980,3.7005,3.6407,6.2548,1.0009,-0.7927,0.1313
1764313070990,5.1416,4.3944,6.0933,0.5611,-0.4384,0.266
1764313071000,5.1416,4.3944,6.0933,0.5611,-0.4384,0.266
1764313071010,5.1416,4.3944,6.0933,0.2992,-0.3994,0.1145
1764313071020,5.5208,4.7474,7.52,0.2992,-0.3994,0.1145
1764313071030,5.5208,4.7474,7.52,0.3028,0.0637,-0.0564
1764313071040,4.0582,3.6706,7.5643,0.3028,0.0637,-0.0564
1764313071050,4.0582,3.6706,7.5643,0.2622,0.7439,0.2613
1764313071060,3.8602,4.7683,5.5322,0.2622,0.7439,0.2613
1764313071070,3.8602,4.7683,5.5322,-0.3296,1.107,0.5809
1764313071080,4.6193,4.9866,5.403,-0.3296,1.107,0.5809
1764313071090,4.6193,4.9866,5.403,-0.7495,1.1402,0.5331
1764313071100,5.0716,4.928,6.5073,-0.7495,1.1402,0.5331
1764313071110,5.0716,4.928,6.5073,-0.7495,1.1402,0.5331
1764313071120,5.2373,4.8257,7.8485,-0.5854,0.4786,0.2692
1764313071130,5.2373,4.8257,7.8485,-0.5854,0.4786,0.2692
1764313071140,5.2373,4.8257,7.8485,-0.108,-0.1775,0.0188
1764313071150,4.9884,4.3484,8.4574,-0.108,-0.1775,0.0188
1764313071160,4.9884,4.3484,8.4574,0.1457,-0.2738,-0.0683
1764313071170,4.5577,4.2257,8.2732,0.1457,-0.2738,-0.0683
1764313071180,4.5577,4.2257,8.2732,0.1049,-0.029,-0.0035
1764313071190,4.4877,4.4183,7.6618,0.1049,-0.029,-0.0035
1764313071200,4.4877,4.4183,7.6618,-0.04,0.146,-0.0113
1764313071210,4.3298,4.6008,7.386,-0.04,0.146,-0.0113
1764313071220,4.3298,4.6008,7.386,-0.1634,0.106,-0.0783
1764313071230,4.2293,4.2867,7.7827,-0.1634,0.106,-0.0783
1764313071240,4.2293,4.2867,7.7827,-0.0738,0.0186,-0.1347
1764313071250,3.5809,4.1091,7.2634,-0.0738,0.0186,-0.1347
1764313071260,3.5809,4.1091,7.2634,-0.0738,0.0186,-0.1347
1764313071270,3.1932,3.9661,6.8925,-0.0055,-0.1619,-0.1093
1764313071280,3.1932,3.9661,6.8925,-0.0055,-0.1619,-0.1093
1764313071290,3.1932,3.9661,6.8925,-0.0788,-0.203,0.0131
1764313071300,3.2381,3.9595,6.7065,-0.0788,-0.203,0.0131
1764313071310,3.2381,3.9595,6.7065,-0.2685,-0.2098,0.1671
1764313071320,4.258,4.3519,6.9523,-0.2685,-0.2098,0.1671
1764313071330,4.258,4.3519,6.9523,-0.534,-0.1106,0.1338
1764313071340,5.467,4.3837,8.6417,-0.534,-0.1106,0.1338
1764313071350,5.467,4.3837,8.6417,-0.5438,0.1011,-0.0716
1764313071360,5.129,3.6162,9.9571,-0.5438,0.1011,-0.0716
1764313071370,5.129,3.6162,9.9571,-0.2465,0.4267,-0.1335
1764313071380,4.1575,3.3147,9.6586,-0.2465,0.4267,-0.1335
1764313071390,4.1575,3.3147,9.6586,-0.2465,0.4267,-0.1335
1764313071400,3.7107,3.6897,8.5059,0.0748,0.4236,-0.0307
1764313071410,3.7107,3.6897,8.5059,0.0748,0.4236,-0.0307
1764313071420,3.7107,3.6897,8.5059,0.2231,0.3708,0.0872
1764313071430,3.5922,3.999,7.4255,0.2231,0.3708,0.0872
1764313071440,3.5922,3.999,7.4255,0.1338,0.2535,0.223
1764313071450,3.8506,4.2323,7.3621,0.1338,0.2535,0.223
1764313071460,3.8506,4.2323,7.3621,-0.0718,0.3375,0.2636
1764313071470,4.1952,4.2574,7.4213,-0.0718,0.3375,0.2636
1764313071480,4.1952,4.2574,7.4213,-0.2546,0.4255,0.2185
1764313071490,4.0187,4.0917,7.8389,-0.2546,0.4255,0.2185
1764313071500,4.0187,4.0917,7.8389,-0.2567,0.3447,0.1826
1764313071510,4.0259,3.868,8.2457,-0.2567,0.3447,0.1826
1764313071520,4.0259,3.868,8.2457,-0.2567,0.3447,0.1826
1764313071530,4.0259,3.868,8.2457,-0.1026,0.0559,0.1228
1764313071540,4.2197,3.856,8.6889,-0.1026,0.0559,0.1228
1764313071550,4.2197,3.856,8.6889,0.1167,-0.2359,0.0194
1764313071560,4.3071,3.9876,8.948,0.1167,-0.2359,0.0194
1764313071570,4.3071,3.9876,8.948,0.2312,-0.2728,-0.058
1764313071580,4.2239,3.947,8.6746,0.2312,-0.2728,-0.058
1764313071590,4.2239,3.947,8.6746,0.1726,-0.0047,-0.0716
1764313071600,3.9494,4.0744,7.8897,0.1726,-0.0047,-0.0716
1764313071610,3.9494,4.0744,7.8897,0.068,0.0217,-0.0602
1764313071620,3.9835,4.1827,7.6588,0.068,0.0217,-0.0602
1764313071630,3.9835,4.1827,7.6588,0.067,-0.1151,-0.1003
1764313071640,3.9099,4.0074,8.0273,0.067,-0.1151,-0.1003
1764313071650,3.9099,4.0074,8.0273,0.0993,-0.1677,-0.0964
1764313071660,4.1474,3.8752,8.4861,0.0993,-0.1677,-0.0964
1764313071670,4.1474,3.8752,8.4861,0.0993,-0.1677,-0.0964
1764313071680,4.1474,3.8752,8.4861,0.1295,-0.0589,-0.0751
1764313071690,4.3729,3.9482,8.5053,0.1295,-0.0589,-0.0751
1764313071700,4.3729,3.9482,8.5053,0.168,0.0333,-0.1425
1764313071710,3.5097,3.9565,8.1978,0.168,0.0333,-0.1425
1764313071720,3.5097,3.9565,8.1978,0.3763,-0.275,-0.1101
1764313071730,3.3404,3.8656,7.3843,0.3763,-0.275,-0.1101
1764313071740,3.3404,3.8656,7.3843,0.5909,-0.8885,-0.0576
1764313071750,3.8506,3.7998,7.8233,0.5909,-0.8885,-0.0576
1764313071760,3.8506,3.7998,7.8233,0.7172,-1.0252,-0.0296
1764313071770,4.1922,4.0373,8.5137,0.7172,-1.0252,-0.0296
1764313071780,4.1922,4.0373,8.5137,0.6891,-0.3969,0.0347
1764313071790,4.1366,4.2144,8.1655,0.6891,-0.3969,0.0347
1764313071800,4.1366,4.2144,8.1655,0.6891,-0.3969,0.0347
1764313071810,4.1366,4.2144,8.1655,0.228,0.8868,0.2204
1764313071820,5.6483,4.5099,9.7591,0.228,0.8868,0.2204
1764313071830,5.6483,4.5099,9.7591,-0.9878,4.3813,0.4543
1764313071840,9.2949,5.8289,11.2732,-0.9878,4.3813,0.4543
1764313071850,9.2949,5.8289,11.2732,-3.4095,10.7106,0.3354
1764313071860,11.9498,7.718,8.6512,-3.4095,10.7106,0.3354
1764313071870,11.9498,7.718,8.6512,-6.2554,16.9304,-0.2799
1764313071880,10.5171,7.7366,4.27,-6.2554,16.9304,-0.2799
1764313071890,10.5171,7.7366,4.27,-6.8001,18.7542,-1.2162
1764313071900,2.6907,4.0744,-1.3795,-6.8001,18.7542,-1.2162
1764313071910,2.6907,4.0744,-1.3795,-3.9334,13.0736,-1.9204
1764313071920,2.6907,4.0744,-1.3795,-3.9334,13.0736,-1.9204
1764313071930,-6.0431,2.3294,-6.4834,-3.9334,13.0736,-1.9204
1764313071940,-12.0407,-1.4728,-4.6074,-0.4012,3.3961,-2.7539
1764313071950,-12.0407,-1.4728,-4.6074,-0.4012,3.3961,-2.7539
1764313071960,-12.0407,-1.4728,-4.6074,0.8967,-2.9967,-2.4302
1764313071970,-11.8217,-5.5101,4.4758,0.8967,-2.9967,-2.4302
1764313071980,-11.8217,-5.5101,4.4758,0.118,-2.8891,-1.1099
1764313071990,-9.5234,-4.3484,8.3097,0.118,-2.8891,-1.1099
1764313072000,-9.5234,-4.3484,8.3097,-0.8008,-1.2277,-0.5023
1764313072010,-8.866,-3.3248,8.1966,-0.8008,-1.2277,-0.5023
1764313072020,-8.866,-3.3248,8.1966,-0.4452,-2.1545,-0.4905
1764313072030,-9.1053,-2.7948,8.8714,-0.4452,-2.1545,-0.4905
1764313072040,-9.1053,-2.7948,8.8714,0.9769,-4.7278,-0.5472
1764313072050,-8.144,-2.2648,8.4371,0.9769,-4.7278,-0.5472
1764313072060,-8.144,-2.2648,8.4371,0.9769,-4.7278,-0.5472
1764313072070,-8.144,-2.2648,8.4371,2.4987,-7.8698,-0.5231
1764313072080,-5.7703,-1.4201,8.6381,2.4987,-7.8698,-0.5231
1764313072090,-5.7703,-1.4201,8.6381,3.8512,-10.7779,-0.5516
1764313072100,-2.5831,-0.4798,10.3238,3.8512,-10.7779,-0.5516
1764313072110,-2.5831,-0.4798,10.3238,5.1067,-12.6826,-0.4633
1764313072120,2.4473,1.4166,11.202,5.1067,-12.6826,-0.4633
1764313072130,2.4473,1.4166,11.202,5.5538,-12.5634,-0.618
1764313072140,5.8349,2.9515,11.4652,5.5538,-12.5634,-0.618
1764313072150,5.8349,2.9515,11.4652,5.1934,-10.5388,-0.8274
1764313072160,7.2443,4.55,11.7811,5.1934,-10.5388,-0.8274
1764313072170,7.2443,4.55,11.7811,3.9514,-6.2123,-0.6361
1764313072180,7.2443,4.55,11.7811,3.9514,-6.2123,-0.6361
1764313072190,6.8949,4.7509,8.5436,1.2362,-0.6338,-0.0964
1764313072200,6.4092,4.7198,4.6822,1.2362,-0.6338,-0.0964
1764313072210,6.4092,4.7198,4.6822,1.2362,-0.6338,-0.0964
1764313072220,6.4092,4.7198,4.6822,-1.3207,2.8866,0.2668
1764313072230,5.4425,4.2736,4.806,-1.3207,2.8866,0.2668
1764313072240,5.4425,4.2736,4.806,-1.6713,2.6212,0.1513
1764313072250,4.605,3.8303,6.3045,-1.6713,2.6212,0.1513
1764313072260,4.605,3.8303,6.3045,-0.0319,-0.1949,-0.225
1764313072270,3.9978,2.8104,7.9747,-0.0319,-0.1949,-0.225
1764313072280,3.9978,2.8104,7.9747,1.4423,-2.1457,-0.3265
1764313072290,4.194,2.5316,8.1751,1.4423,-2.1457,-0.3265
1764313072300,4.194,2.5316,8.1751,1.5889,-1.8256,-0.0447
1764313072310,5.3695,3.0437,7.209,1.5889,-1.8256,-0.0447
1764313072320,5.3695,3.0437,7.209,1.5889,-1.8256,-0.0447
1764313072330,6.6168,4.133,6.4911,0.6548,-0.1206,0.2497
1764313072340,6.6168,4.133,6.4911,0.6548,-0.1206,0.2497
1764313072350,5.6279,4.1569,6.2417,-0.3247,1.478,0.2863
1764313072360,5.6279,4.1569,6.2417,-0.3247,1.478,0.2863
1764313072370,5.6279,4.1569,6.2417,-0.515,1.7066,0.3122
1764313072380,4.7743,4.1839,5.2708,-0.515,1.7066,0.3122
1764313072390,4.7743,4.1839,5.2708,-0.3995,1.0351,0.3826
1764313072400,5.0094,4.5129,5.604,-0.3995,1.0351,0.3826
1764313072410,5.0094,4.5129,5.604,-0.1871,-0.0136,0.2286
1764313072420,5.8146,4.1617,7.6379,-0.1871,-0.0136,0.2286
1764313072430,5.8146,4.1617,7.6379,0.1929,-0.5023,0.0861
1764313072440,6.3063,4.0373,8.2612,0.1929,-0.5023,0.0861
1764313072450,6.3063,4.0373,8.2612,0.3482,-0.3102,0.0029
1764313072460,6.277,4.0086,7.922,0.3482,-0.3102,0.0029
1764313072470,6.277,4.0086,7.922,0.3482,-0.3102,0.0029
1764313072480,5.9737,4.0995,7.1372,0.1767,0.2731,0.0136
1764313072490,5.9737,4.0995,7.1372,0.1767,0.2731,0.0136
1764313072500,5.9737,4.0995,7.1372,-0.0334,0.5434,0.0115
1764313072510,5.3916,4.2209,6.7466,-0.0334,0.5434,0.0115
1764313072520,5.3916,4.2209,6.7466,-0.0195,0.2747,-0.0386
1764313072530,5.2164,4.2353,6.8865,-0.0195,0.2747,-0.0386
1764313072540,5.2164,4.2353,6.8865,0.1445,-0.1443,-0.1034
1764313072550,5.269,4.1551,7.2586,0.1445,-0.1443,-0.1034
1764313072560,5.269,4.1551,7.2586,0.1831,-0.1419,-0.1208
1764313072570,5.3521,3.8937,7.4925,0.1831,-0.1419,-0.1208
1764313072580,5.3521,3.8937,7.4925,0.0961,0.1277,-0.0759
1764313072590,5.1655,3.9882,7.2473,0.0961,0.1277,-0.0759
1764313072600,5.1655,3.9882,7.2473,0.0961,0.1277,-0.0759
1764313072610,4.9448,3.9864,6.9087,0.0545,0.2376,-0.0446
1764313072620,4.9448,3.9864,6.9087,0.0545,0.2376,-0.0446
1764313072630,4.9448,3.9864,6.9087,0.0809,0.0425,-0.0368
1764313072640,5.065,4.1862,6.8447,0.0809,0.0425,-0.0368
1764313072650,5.065,4.1862,6.8447,0.151,-0.1646,-0.1168
1764313072660,4.6834,3.9637,6.8925,0.151,-0.1646,-0.1168
1764313072670,4.6834,3.9637,6.8925,0.1057,-0.1785,-0.0785
1764313072680,4.9448,3.9978,6.9188,0.1057,-0.1785,-0.0785
1764313072690,4.9448,3.9978,6.9188,-0.086,0.1213,-0.0173
1764313072700,4.998,4.066,6.7466,-0.086,0.1213,-0.0173
1764313072710,4.998,4.066,6.7466,-0.2827,0.3664,0.0128
1764313072720,5.1589,4.0373,7.1515,-0.2827,0.3664,0.0128
1764313072730,5.1589,4.0373,7.1515,-0.3283,0.4401,-0.0011
1764313072740,5.0758,3.9494,7.7067,-0.3283,0.4401,-0.0011
1764313072750,5.0758,3.9494,7.7067,-0.3283,0.4401,-0.0011
1764313072760,5.0758,3.9494,7.7067,-0.1996,0.3948,-0.0446
1764313072770,4.5206,3.6658,7.7563,-0.1996,0.3948,-0.0446
1764313072780,4.5206,3.6658,7.7563,-0.0432,0.199,0.0176
1764313072790,4.5093,3.6981,7.6989,-0.0432,0.199,0.0176
1764313072800,4.5093,3.6981,7.6989,0.0699,0.0206,0.0817
1764313072810,4.7079,3.8237,7.6505,0.0699,0.0206,0.0817
1764313072820,4.7079,3.8237,7.6505,0.0953,-0.0312,0.117
1764313072830,4.8156,3.9063,7.6678,0.0953,-0.0312,0.117
1764313072840,4.8156,3.9063,7.6678,0.1106,-0.0124,0.1361
1764313072850,5.135,4.0307,7.6026,0.1106,-0.0124,0.1361
1764313072860,5.135,4.0307,7.6026,0.1301,-0.0182,0.086
1764313072870,5.135,4.0307,7.6026,0.1301,-0.0182,0.086
1764313072880,5.397,4.1444,7.6678,0.1301,-0.0182,0.086
1764313072890,5.4652,4.2497,7.7611,0.1539,-0.0666,-0.0162
1764313072900,5.4652,4.2497,7.7611,0.1539,-0.0666,-0.0162
1764313072910,5.4652,4.2497,7.7611,0.2112,-0.1122,-0.1025
1764313072920,5.0381,4.1097,7.5344,0.2112,-0.1122,-0.1025
1764313072930,5.0381,4.1097,7.5344,0.2321,-0.0932,-0.0997
1764313072940,4.8419,4.0977,7.4261,0.2321,-0.0932,-0.0997
1764313072950,4.8419,4.0977,7.4261,0.1998,-0.0718,-0.0521
1764313072960,5.0602,4.2287,7.4333,0.1998,-0.0718,-0.0521
1764313072970,5.0602,4.2287,7.4333,0.2246,-0.1072,-0.0883
1764313072980,5.4108,4.2305,7.4907,0.2246,-0.1072,-0.0883
1764313072990,5.4108,4.2305,7.4907,0.2752,-0.0431,-0.1709
1764313073000,4.2766,4.06,7.5182,0.2752,-0.0431,-0.1709
1764313073010,4.2766,4.06,7.5182,0.2752,-0.0431,-0.1709
1764313073020,4.3759,4.1575,7.1629,0.3375,0.1817,-0.0582
1764313073030,4.3759,4.1575,7.1629,0.3375,0.1817,-0.0582
1764313073040,4.3759,4.1575,7.1629,0.3537,0.1077,0.1179
1764313073050,4.9436,4.1001,7.3376,0.3537,0.1077,0.1179
1764313073060,4.9436,4.1001,7.3376,0.565,-0.1822,0.0938
1764313073070,4.7025,4.3167,7.2293,0.565,-0.1822,0.0938
1764313073080,4.7025,4.3167,7.2293,0.7558,-0.5751,0.1025
1764313073090,4.9119,4.3759,6.9547,0.7558,-0.5751,0.1025
1764313073100,4.9119,4.3759,6.9547,0.7336,-0.7918,0.1182
1764313073110,5.6632,4.7198,6.941,0.7336,-0.7918,0.1182
1764313073120,5.6632,4.7198,6.941,0.8015,-1.0151,0.0058
1764313073130,5.3827,4.7557,6.9344,0.8015,-1.0151,0.0058
1764313073140,5.3827,4.7557,6.9344,0.8015,-1.0151,0.0058
1764313073150,5.0172,4.6487,6.4642,1.1307,-1.6275,-0.1078
1764313073160,5.0172,4.6487,6.4642,1.1307,-1.6275,-0.1078
1764313073170,5.0172,4.6487,6.4642,1.6687,-2.5484,-0.1998
1764313073180,4.7827,4.5081,6.0048,1.6687,-2.5484,-0.1998
1764313073190,4.7827,4.5081,6.0048,2.1525,-3.1249,-0.1443
1764313073200,4.7366,4.5673,5.5238,2.1525,-3.1249,-0.1443
1764313073210,4.7366,4.5673,5.5238,2.0149,-2.4175,0.1379
1764313073220,6.1149,5.1045,6.2345,2.0149,-2.4175,0.1379
1764313073230,6.1149,5.1045,6.2345,0.6657,1.0997,0.6176
1764313073240,9.9003,6.5868,5.8349,0.6657,1.0997,0.6176
1764313073250,9.9003,6.5868,5.8349,-2.4771,7.7427,0.7243
1764313073260,13.3053,9.2183,2.8588,-2.4771,7.7427,0.7243
1764313073270,13.3053,9.2183,2.8588,-2.4771,7.7427,0.7243
1764313073280,13.5876,9.8985,1.6624,-6.5509,14.7782,0.2882
1764313073290,13.5876,9.8985,1.6624,-6.5509,14.7782,0.2882
1764313073300,12.2357,8.6112,0.8824,-9.2328,20.1033,-0.4372
1764313073310,12.2357,8.6112,0.8824,-9.2328,20.1033,-0.4372
1764313073320,12.2357,8.6112,0.8824,-8.944,21.369,-1.4791
1764313073330,3.146,2.8732,-2.4532,-8.944,21.369,-1.4791
1764313073340,3.146,2.8732,-2.4532,-5.267,14.6203,-2.1547
1764313073350,-7.8592,-0.8728,-4.3914,-5.267,14.6203,-2.1547
1764313073360,-7.8592,-0.8728,-4.3914,-0.3682,3.6186,-3.0862
1764313073370,-15.5928,-5.7015,-4.0265,-0.3682,3.6186,-3.0862
1764313073380,-15.5928,-5.7015,-4.0265,0.9833,-3.2179,-2.5659
1764313073390,-16.0032,-9.6784,6.0694,0.9833,-3.2179,-2.5659
1764313073400,-16.0032,-9.6784,6.0694,-0.2248,-2.545,-0.6978
1764313073410,-11.6088,-7.1294,12.256,-0.2248,-2.545,-0.6978
1764313073420,-11.6088,-7.1294,12.256,-0.2248,-2.545,-0.6978
1764313073430,-8.9474,-3.5492,10.3693,-0.5202,-0.5912,0.221
1764313073440,-8.9474,-3.5492,10.3693,-0.5202,-0.5912,0.221
1764313073450,-8.9474,-3.5492,10.3693,0.4307,-1.4137,0.1631
1764313073460,-8.0094,-1.6738,7.2371,0.4307,-1.4137,0.1631
1764313073470,-8.0094,-1.6738,7.2371,1.4937,-3.8193,-0.0512
1764313073480,-6.4636,-0.5695,7.188,1.4937,-3.8193,-0.0512
1764313073490,-6.4636,-0.5695,7.188,2.0218,-5.4007,-0.1761
1764313073500,-4.4937,-0.0239,8.458,2.0218,-5.4007,-0.1761
1764313073510,-4.4937,-0.0239,8.458,1.5742,-5.0737,-0.239
1764313073520,-3.4152,-0.3906,10.3226,1.5742,-5.0737,-0.239
1764313073530,-3.4152,-0.3906,10.3226,1.0261,-4.1142,-0.2169
1764313073540,-2.7823,-0.7597,11.9868,1.0261,-4.1142,-0.2169
1764313073550,-2.7823,-0.7597,11.9868,1.0261,-4.1142,-0.2169
1764313073560,-1.7402,-0.6497,11.5286,1.2538,-3.735,-0.2109
1764313073570,-1.7402,-0.6497,11.5286,1.2538,-3.735,-0.2109
1764313073580,-1.7402,-0.6497,11.5286,2.0626,-4.7108,-0.4381
1764313073590,-0.6353,0.1549,10.9908,2.0626,-4.7108,-0.4381
1764313073600,-0.6353,0.1549,10.9908,3.4679,-6.8255,-0.8778
1764313073610,0.6239,0.8058,11.4012,3.4679,-6.8255,-0.8778
1764313073620,0.6239,0.8058,11.4012,4.3944,-7.6496,-1.0708
1764313073630,1.1438,1.1934,11.54,4.3944,-7.6496,-1.0708
1764313073640,1.1438,1.1934,11.54,3.8764,-5.8116,-0.7118
1764313073650,1.3591,0.8853,10.8526,3.8764,-5.8116,-0.7118
1764313073660,1.3591,0.8853,10.8526,2.6046,-2.6884,-0.0247
1764313073670,2.3515,2.6177,7.9986,2.6046,-2.6884,-0.0247
1764313073680,2.3515,2.6177,7.9986,2.6046,-2.6884,-0.0247
1764313073690,4.1617,4.0756,5.5143,1.3589,-0.7569,0.4383
1764313073700,4.1617,4.0756,5.5143,1.3589,-0.7569,0.4383
1764313073710,4.1617,4.0756,5.5143,0.7785,-0.8615,0.1052
1764313073720,4.5589,4.3729,5.7458,0.7785,-0.8615,0.1052
1764313073730,4.5589,4.3729,5.7458,0.9499,-1.939,-0.396
1764313073740,3.7549,3.6359,7.788,0.9499,-1.939,-0.396
1764313073750,3.7549,3.6359,7.788,1.2382,-2.2758,-0.3876
1764313073760,3.283,2.9976,8.6919,1.2382,-2.2758,-0.3876
1764313073770,3.283,2.9976,8.6919,1.0403,-1.1796,0.0376
1764313073780,3.661,3.3565,8.0052,1.0403,-1.1796,0.0376
1764313073790,3.661,3.3565,8.0052,0.3822,0.3219,0.4134
1764313073800,4.8592,4.2036,6.3398,0.3822,0.3219,0.4134
1764313073810,4.8592,4.2036,6.3398,-0.1503,0.7805,0.3703
1764313073820,5.1841,4.6822,5.744,-0.1503,0.7805,0.3703
1764313073830,5.1841,4.6822,5.744,-0.1503,0.7805,0.3703
1764313073840,5.1841,4.6822,5.744,-0.2836,0.4026,0.0593
1764313073850,4.7629,4.4207,6.3613,-0.2836,0.4026,0.0593
1764313073860,4.7629,4.4207,6.3613,-0.2477,0.0451,-0.0991
1764313073870,4.1856,3.9464,7.7671,-0.2477,0.0451,-0.0991
1764313073880,4.1856,3.9464,7.7671,-0.1239,0.018,-0.0528
1764313073890,4.0116,3.6742,8.059,-0.1239,0.018,-0.0528
1764313073900,4.0116,3.6742,8.059,0.0052,0.0275,0.0483
1764313073910,4.3896,3.8782,7.7276,0.0052,0.0275,0.0483
1764313073920,4.3896,3.8782,7.7276,-0.0269,0.0099,0.0657
1764313073930,4.6307,4.1049,7.5517,-0.0269,0.0099,0.0657
1764313073940,4.6307,4.1049,7.5517,-0.126,0.0805,0.0182
1764313073950,4.4614,4.1097,7.5697,-0.126,0.0805,0.0182
1764313073960,4.4614,4.1097,7.5697,-0.126,0.0805,0.0182
1764313073970,4.4614,4.1097,7.5697,-0.2335,0.0808,-0.0055
1764313073980,4.2832,3.795,8.1404,-0.2335,0.0808,-0.0055
1764313073990,4.2832,3.795,8.1404,-0.126,0.0478,-0.0215
1764313074000,3.8303,3.7214,7.6774,-0.126,0.0478,-0.0215
1764313074010,3.8303,3.7214,7.6774,-0.0412,-0.0938,0.0177
1764313074020,3.8124,3.7842,6.9966,-0.0412,-0.0938,0.0177
1764313074030,3.8124,3.7842,6.9966,-0.1329,-0.2931,0.0498
1764313074040,4.55,4.0738,7.2933,-0.1329,-0.2931,0.0498
1764313074050,4.55,4.0738,7.2933,-0.2954,-0.3044,-0.0125
1764313074060,4.9693,3.7723,8.8726,-0.2954,-0.3044,-0.0125
1764313074070,4.9693,3.7723,8.8726,-0.2851,-0.0221,-0.0576
1764313074080,4.9065,3.5127,9.8124,-0.2851,-0.0221,-0.0576
1764313074090,4.9065,3.5127,9.8124,-0.2851,-0.0221,-0.0576
1764313074100,4.2467,3.4026,9.0419,-0.0104,0.1575,-0.0536
1764313074110,4.2467,3.4026,9.0419,-0.0104,0.1575,-0.0536
1764313074120,4.2467,3.4026,9.0419,0.2315,0.0565,0.0383
1764313074130,4.3657,3.8154,8.2379,0.2315,0.0565,0.0383
1764313074140,4.3657,3.8154,8.2379,0.2657,-0.0522,0.0437
1764313074150,4.7222,4.0331,7.9412,0.2657,-0.0522,0.0437
1764313074160,4.7222,4.0331,7.9412,0.2088,-0.0519,-0.0328
1764313074170,4.5051,3.9338,7.9316,0.2088,-0.0519,-0.0328
1764313074180,4.5051,3.9338,7.9316,0.1909,-0.0397,-0.0496
1764313074190,4.1091,3.7328,7.9071,0.1909,-0.0397,-0.0496
1764313074200,4.1091,3.7328,7.9071,0.1599,0.0583,0.0389
1764313074210,4.3406,3.8925,8.0794,0.1599,0.0583,0.0389
1764313074220,4.3406,3.8925,8.0794,0.1599,0.0583,0.0389
1764313074230,4.3406,3.8925,8.0794,0.0446,0.2645,0.0664
1764313074240,4.7683,3.859,8.4532,0.0446,0.2645,0.0664
1764313074250,4.7683,3.859,8.4532,0.0867,0.3752,-0.0089
1764313074260,4.462,3.8219,7.9777,0.0867,0.3752,-0.0089
1764313074270,4.462,3.8219,7.9777,0.1413,0.2679,-0.057
1764313074280,4.0259,3.9703,7.6774,0.1413,0.2679,-0.057
1764313074290,4.0259,3.9703,7.6774,0.1746,0.0971,-0.0478
1764313074300,4.0869,3.8782,8.0656,0.1746,0.0971,-0.0478
1764313074310,4.0869,3.8782,8.0656,0.2659,0.005,-0.0231
1764313074320,4.2383,3.9829,8.0907,0.2659,0.005,-0.0231
1764313074330,4.2383,3.9829,8.0907,0.2659,0.005,-0.0231
1764313074340,3.9912,3.8973,7.7874,0.3176,0.0084,-0.0338
1764313074350,3.9912,3.8973,7.7874,0.1965,0.19,0.0576
1764313074360,4.2796,4.2179,7.55,0.1965,0.19,0.0576
1764313074370,4.2796,4.2179,7.55,0.1965,0.19,0.0576
1764313074380,4.2796,4.2179,7.55,0.0324,0.2723,0.0522
1764313074390,4.6516,4.3502,7.6253,0.0324,0.2723,0.0522
1764313074400,4.6516,4.3502,7.6253,0.1164,0.0535,-0.1049
1764313074410,3.7519,3.8752,7.6223,0.1164,0.0535,-0.1049
1764313074420,3.7519,3.8752,7.6223,0.3876,-0.2572,-0.093
1764313074430,3.4822,3.883,7.2156,0.3876,-0.2572,-0.093
1764313074440,3.4822,3.883,7.2156,0.4084,-0.4939,0.0779
1764313074450,4.2622,4.2479,7.5912,0.4084,-0.4939,0.0779
1764313074460,4.2622,4.2479,7.5912,0.2957,-0.3485,0.1086
1764313074470,4.6726,4.3872,7.7707,0.2957,-0.3485,0.1086
1764313074480,4.6726,4.3872,7.7707,0.2957,-0.3485,0.1086
1764313074490,4.6726,4.3872,7.7707,0.2596,-0.1358,0.0832
1764313074500,4.7713,4.4973,7.194,0.2596,-0.1358,0.0832
1764313074510,4.7934,4.7474,6.8357,0.1889,-0.124,0.0177
1764313074520,4.7934,4.7474,6.8357,0.1889,-0.124,0.0177
1764313074530,4.7934,4.7474,6.8357,0.0728,-0.241,-0.0707
1764313074540,4.7438,4.7366,7.1198,0.0728,-0.241,-0.0707
1764313074550,4.7438,4.7366,7.1198,0.1381,-0.5208,-0.1689
1764313074560,4.6355,4.4447,7.6588,0.1381,-0.5208,-0.1689
1764313074570,4.6355,4.4447,7.6588,0.4691,-1.0171,-0.2344
1764313074580,4.6911,4.3585,7.8616,0.4691,-1.0171,-0.2344
1764313074590,4.6911,4.3585,7.8616,0.8503,-1.5305,-0.256
1764313074600,4.8957,4.6307,7.751,0.8503,-1.5305,-0.256
1764313074610,4.8957,4.6307,7.751,0.9957,-1.6038,-0.2659
1764313074620,5.0106,4.8335,6.9709,0.9957,-1.6038,-0.2659
1764313074630,5.0106,4.8335,6.9709,0.9957,-1.6038,-0.2659
1764313074640,4.8921,4.8461,6.335,1.0006,-1.5612,-0.2506
1764313074650,4.8921,4.8461,6.335,1.0006,-1.5612,-0.2506
1764313074660,4.8921,4.8461,6.335,0.8795,-1.3453,-0.1765
1764313074670,5.135,5.1685,5.8445,0.8795,-1.3453,-0.1765
1764313074680,5.135,5.1685,5.8445,0.7089,-1.1014,-0.1571
1764313074690,5.2869,5.2337,5.7272,0.7089,-1.1014,-0.1571
1764313074700,5.2869,5.2337,5.7272,0.4801,-0.5931,-0.0715
1764313074710,5.5675,5.1553,6.4576,0.4801,-0.5931,-0.0715
1764313074720,5.5675,5.1553,6.4576,-0.3059,1.4594,0.2491
1764313074730,8.0411,6.0383,8.3701,-0.3059,1.4594,0.2491
1764313074740,8.0411,6.0383,8.3701,-2.6994,7.4588,0.5418
1764313074750,12.7645,8.4239,7.2233,-2.6994,7.4588,0.5418
1764313074760,12.7645,8.4239,7.2233,-2.6994,7.4588,0.5418
1764313074770,14.2534,9.2871,1.7408,-7.0188,16.8221,0.3077
1764313074780,14.2534,9.2871,1.7408,-7.0188,16.8221,0.3077
1764313074790,14.2534,9.2871,1.7408,-10.3004,23.5149,-0.5003
1764313074800,10.3208,7.4333,-2.522,-10.3004,23.5149,-0.5003
1764313074810,10.3208,7.4333,-2.522,-9.1178,21.3422,-1.6003
1764313074820,-3.9021,2.2636,-7.5595,-9.1178,21.3422,-1.6003
1764313074830,-3.9021,2.2636,-7.5595,-2.5956,8.123,-2.8677
1764313074840,-16.483,-4.1809,-7.145,-2.5956,8.123,-2.8677
1764313074850,-16.483,-4.1809,-7.145,2.6304,-4.6236,-2.8883
1764313074860,-15.7926,-10.474,6.4977,2.6304,-4.6236,-2.8883
1764313074870,-15.7926,-10.474,6.4977,1.8043,-4.0054,-0.7312
1764313074880,-8.9186,-5.7553,11.7308,1.8043,-4.0054,-0.7312
1764313074890,-8.9186,-5.7553,11.7308,-1.0374,1.4948,-0.0736
1764313074900,-8.9665,-2.6596,8.1033,-1.0374,1.4948,-0.0736
1764313074910,-8.9665,-2.6596,8.1033,-1.0374,1.4948,-0.0736
1764313074920,-8.9665,-2.6596,8.1033,-1.2364,1.564,-0.2469
1764313074930,-11.3306,-2.6261,6.5294,-1.2364,1.564,-0.2469
1764313074940,-11.3306,-2.6261,6.5294,0.4556,-1.5803,-0.1416
1764313074950,-10.6116,-2.2427,6.4588,0.4556,-1.5803,-0.1416
1764313074960,-10.6116,-2.2427,6.4588,1.1642,-3.3411,0.1729
1764313074970,-9.0293,-1.3478,5.6967,1.1642,-3.3411,0.1729
1764313074980,-9.0293,-1.3478,5.6967,1.102,-4.2872,0.3419
1764313074990,-7.7109,-1.1312,5.6836,1.102,-4.2872,0.3419
1764313075000,-7.7109,-1.1312,5.6836,1.3951,-6.0702,0.3393
1764313075010,-5.6913,-1.3412,7.617,1.3951,-6.0702,0.3393
1764313075020,-5.6913,-1.3412,7.617,2.4587,-8.3795,0.2698
1764313075030,-5.6913,-1.3412,7.617,2.4587,-8.3795,0.2698
1764313075040,-1.9077,-0.5587,10.4518,2.4587,-8.3795,0.2698
1764313075050,-1.9077,-0.5587,10.4518,3.6052,-9.7741,-0.0067
1764313075060,1.2168,0.6975,13.1049,3.6052,-9.7741,-0.0067
1764313075070,1.2168,0.6975,13.1049,4.4373,-9.5745,-0.3082
1764313075080,2.2911,1.8102,12.5557,4.4373,-9.5745,-0.3082
1764313075090,2.2911,1.8102,12.5557,4.4575,-7.9635,-0.3322
1764313075100,2.7984,2.549,10.5607,4.4575,-7.9635,-0.3322
1764313075110,2.7984,2.549,10.5607,3.1621,-4.7339,-0.0015
1764313075120,4.3723,3.521,8.5711,3.1621,-4.7339,-0.0015
1764313075130,4.3723,3.521,8.5711,1.295,-1.4662,0.1839
1764313075140,5.4108,4.0164,7.657,1.295,-1.4662,0.1839
1764313075150,5.4108,4.0164,7.657,0.3554,0.027,-0.0509
1764313075160,4.6421,3.7777,7.4417,0.3554,0.027,-0.0509
1764313075170,4.6421,3.7777,7.4417,0.3554,0.027,-0.0509
1764313075180,3.3105,3.0975,6.9667,0.306,0.1565,-0.2818
1764313075190,3.3105,3.0975,6.9667,0.306,0.1565,-0.2818
1764313075200,3.3105,3.0975,6.9667,0.3135,-0.0666,-0.195
1764313075210,3.2076,3.0072,7.1611,0.3135,-0.0666,-0.195
1764313075220,3.2076,3.0072,7.1611,0.243,-0.102,-0.0502
1764313075230,3.6179,3.0694,7.7204,0.243,-0.102,-0.0502
1764313075240,3.6179,3.0694,7.7204,0.1619,0.1848,0.031
1764313075250,4.0092,3.1998,7.5248,0.1619,0.1848,0.031
1764313075260,4.0092,3.1998,7.5248,-0.0238,0.5817,0.0353
1764313075270,3.0981,2.8379,7.9615,-0.0238,0.5817,0.0353
1764313075280,3.0981,2.8379,7.9615,-0.1023,1.0334,0.1895
1764313075290,2.3976,2.7745,7.797,-0.1023,1.0334,0.1895
1764313075300,2.3976,2.7745,7.797,-0.1023,1.0334,0.1895
1764313075310,2.875,3.1346,7.7653,-0.3702,1.3992,0.6174
1764313075320,2.875,3.1346,7.7653,-0.3702,1.3992,0.6174
1764313075330,2.875,3.1346,7.7653,-0.7384,1.4317,0.7414
1764313075340,4.0582,3.3775,8.9695,-0.7384,1.4317,0.7414
1764313075350,4.0582,3.3775,8.9695,-0.6135,1.1613,0.4513
1764313075360,4.0917,3.6197,9.399,-0.6135,1.1613,0.4513
1764313075370,4.0917,3.6197,9.399,-0.0922,0.3491,-0.0038
1764313075380,2.9653,3.3147,9.1932,-0.0922,0.3491,-0.0038
1764313075390,2.9653,3.3147,9.1932,0.3138,-0.3635,-0.1773
1764313075400,2.2235,3.0179,9.1466,0.3138,-0.3635,-0.1773
1764313075410,2.2235,3.0179,9.1466,0.3001,-0.4018,-0.0492
1764313075420,2.5286,3.2255,9.4708,0.3001,-0.4018,-0.0492
1764313075430,2.5286,3.2255,9.4708,0.3001,-0.4018,-0.0492
1764313075440,2.5286,3.2255,9.4708,0.1005,0.0406,0.0559
1764313075450,2.9097,3.2674,9.2668,0.1005,0.0406,0.0559
1764313075460,2.9097,3.2674,9.2668,0.0443,0.1944,0.0341
1764313075470,2.7823,3.2889,8.857,0.0443,0.1944,0.0341
1764313075480,2.7823,3.2889,8.857,0.1171,0.0425,-0.0218
1764313075490,2.6309,3.2142,8.5125,0.1171,0.0425,-0.0218
1764313075500,2.6309,3.2142,8.5125,0.1535,-0.1636,-0.0634
1764313075510,2.3719,3.0066,8.3665,0.1535,-0.1636,-0.0634
1764313075520,2.3719,3.0066,8.3665,0.1156,-0.2471,-0.0096
1764313075530,2.6166,2.9844,8.6447,0.1156,-0.2471,-0.0096
1764313075540,2.6166,2.9844,8.6447,0.0794,-0.1683,0.0339
1764313075550,2.6447,3.0736,8.3282,0.0794,-0.1683,0.0339
1764313075560,2.6447,3.0736,8.3282,0.0379,-0.0773,0.0854
1764313075570,2.817,3.2554,7.9029,0.0379,-0.0773,0.0854
1764313075580,2.817,3.2554,7.9029,0.0379,-0.0773,0.0854
1764313075590,3.1621,3.2369,8.144,-0.0837,-0.1066,0.0683
1764313075600,3.1621,3.2369,8.144,-0.0837,-0.1066,0.0683
1764313075610,3.1621,3.2369,8.144,-0.1199,-0.1509,0.0096
1764313075620,3.146,3.3248,8.1535,-0.1199,-0.1509,0.0096
1764313075630,3.146,3.3248,8.1535,-0.2045,-0.1956,-0.0426
1764313075640,3.3799,3.213,9.2267,-0.2045,-0.1956,-0.0426
1764313075650,3.3799,3.213,9.2267,-0.2327,-0.1448,-0.0944
1764313075660,3.7442,2.9049,10.6708,-0.2327,-0.1448,-0.0944
1764313075670,3.7442,2.9049,10.6708,0.0218,0.117,-0.1362
1764313075680,3.2082,2.9228,9.9051,0.0218,0.117,-0.1362
1764313075690,3.2082,2.9228,9.9051,0.179,0.1724,-0.118
1764313075700,2.7218,3.2171,8.8792,0.179,0.1724,-0.118
1764313075710,2.7218,3.2171,8.8792,0.179,0.1724,-0.118
1764313075720,2.918,3.2991,8.9378,0.1591,0.0104,-0.0796
1764313075730,2.918,3.2991,8.9378,0.1591,0.0104,-0.0796
1764313075740,2.918,3.2991,8.9378,0.1729,-0.1121,-0.0898
1764313075750,2.6877,3.149,9.4241,0.1729,-0.1121,-0.0898
1764313075760,2.6877,3.149,9.4241,0.2992,-0.1457,-0.0641
1764313075770,2.5472,2.6764,9.8728,0.2992,-0.1457,-0.0641
1764313075780,2.5472,2.6764,9.8728,0.4763,-0.0788,0.0258
1764313075790,2.4808,2.921,9.8231,0.4763,-0.0788,0.0258
1764313075800,2.4808,2.921,9.8231,0.5249,0.1013,0.1092
1764313075810,2.482,2.8636,9.1914,0.5249,0.1013,0.1092
1764313075820,2.482,2.8636,9.1914,0.4003,0.2772,0.2204
1764313075830,2.5472,3.4917,8.3809,0.4003,0.2772,0.2204
1764313075840,2.5472,3.4917,8.3809,0.4003,0.2772,0.2204
1764313075850,3.0018,4.148,8.3797,0.2304,0.2428,0.2611
1764313075860,3.0018,4.148,8.3797,0.2304,0.2428,0.2611
1764313075870,3.0018,4.148,8.3797,0.2063,0.0974,0.1509
1764313075880,3.2267,3.8824,8.7942,0.2063,0.0974,0.1509
1764313075890,3.2267,3.8824,8.7942,0.3326,0.0202,0.0363
1764313075900,3.1358,3.7549,8.4784,0.3326,0.0202,0.0363
1764313075910,3.1358,3.7549,8.4784,0.3822,-0.0116,-0.005
1764313075920,3.0485,3.7771,7.8162,0.3822,-0.0116,-0.005
1764313075930,3.0485,3.7771,7.8162,0.2434,0.0243,0.0011
1764313075940,3.0855,3.8632,8.0148,0.2434,0.0243,0.0011
1764313075950,3.0855,3.8632,8.0148,0.2434,0.0243,0.0011
1764313075960,3.0855,3.8632,8.0148,0.1156,0.1098,0.0014
1764313075970,3.0855,3.8632,8.0148,0.1156,0.1098,0.0014
