Timestamp,ax,ay,az,gx,gy,gz
1764313274300,0.0191,3.1286,8.927,0.6953,-0.9311,-0.3144
1764313274310,0.0191,3.1286,8.927,0.6953,-0.9311,-0.3144
1764313274320,-1.8311,2.4407,9.4648,0.9464,-1.3631,-0.2937
1764313274330,-1.8311,2.4407,9.4648,0.9464,-1.3631,-0.2937
1764313274340,-1.8311,2.4407,9.4648,1.2372,-1.2504,0.1634
1764313274350,-0.9105,2.2002,8.4694,1.2372,-1.2504,0.1634
1764313274360,-0.9105,2.2002,8.4694,1.1738,-1.2756,0.6721
1764313274370,1.1169,3.3153,9.0287,1.1738,-1.2756,0.6721
1764313274380,1.1169,3.3153,9.0287,0.9436,-0.7364,0.7613
1764313274390,2.5316,4.1605,8.75,0.9436,-0.7364,0.7613
1764313274400,2.5316,4.1605,8.75,0.7552,-0.4983,0.553
1764313274410,1.5948,3.993,8.324,0.7552,-0.4983,0.553
1764313274420,1.5948,3.993,8.324,1.1577,-1.377,0.4803
1764313274430,1.0181,3.8094,8.3856,1.1577,-1.377,0.4803
1764313274440,1.0181,3.8094,8.3856,1.7417,-2.3326,0.6086
1764313274450,2.0453,4.6086,7.7803,1.7417,-2.3326,0.6086
1764313274460,2.0453,4.6086,7.7803,1.7417,-2.3326,0.6086
1764313274470,3.0975,5.0566,6.8471,1.8595,-2.6038,0.6753
1764313274480,3.0975,5.0566,6.8471,1.8595,-2.6038,0.6753
1764313274490,3.0975,5.0566,6.8471,1.8908,-2.9425,0.6781
1764313274500,3.7998,5.2098,7.1563,1.8908,-2.9425,0.6781
1764313274510,3.7998,5.2098,7.1563,2.2103,-3.2611,0.5986
1764313274520,4.1922,4.9789,7.255,2.2103,-3.2611,0.5986
1764313274530,4.1922,4.9789,7.255,2.4016,-2.9337,0.6341
1764313274540,4.8162,5.2128,6.4499,2.4016,-2.9337,0.6341
1764313274550,4.8162,5.2128,6.4499,1.6991,-1.2964,0.8657
1764313274560,6.4576,6.1484,5.0907,1.6991,-1.2964,0.8657
1764313274570,6.4576,6.1484,5.0907,0.2895,1.0516,0.9146
1764313274580,9.4624,7.6774,5.2989,0.2895,1.0516,0.9146
1764313274590,9.4624,7.6774,5.2989,-1.334,4.1792,0.4537
1764313274600,11.4317,8.9856,4.8891,-1.334,4.1792,0.4537
1764313274610,11.4317,8.9856,4.8891,-1.334,4.1792,0.4537
1764313274620,13.3795,10.3119,3.1376,-3.6391,9.0206,-0.2827
1764313274630,13.3795,10.3119,3.1376,-3.6391,9.0206,-0.2827
1764313274640,13.3795,10.3119,3.1376,-6.9162,15.6603,-1.1226
1764313274650,15.6503,11.2762,-2.0626,-6.9162,15.6603,-1.1226
1764313274660,15.6503,11.2762,-2.0626,-9.3192,20.2694,-2.6979
1764313274670,10.1073,7.5517,-7.1797,-9.3192,20.2694,-2.6979
1764313274680,10.1073,7.5517,-7.1797,-8.2491,18.1506,-4.0337
1764313274690,-2.0369,1.0642,-12.0969,-8.2491,18.1506,-4.0337
1764313274700,-2.0369,1.0642,-12.0969,-4.6162,8.4044,-4.7745
1764313274710,-13.2066,-6.2195,-7.1366,-4.6162,8.4044,-4.7745
1764313274720,-13.2066,-6.2195,-7.1366,-0.8618,-1.9106,-4.4718
1764313274730,-15.3159,-12.4582,7.5948,-0.8618,-1.9106,-4.4718
1764313274740,-15.3159,-12.4582,7.5948,-0.8618,-1.9106,-4.4718
1764313274750,-13.3137,-11.5621,13.5769,0.2579,-3.6947,-2.5647
1764313274760,-13.3137,-11.5621,13.5769,0.2579,-3.6947,-2.5647
1764313274770,-13.3137,-11.5621,13.5769,-0.7175,-0.3097,-1.1642
1764313274780,-12.8698,-9.0287,10.3627,-0.7175,-0.3097,-1.1642
1764313274790,-12.8698,-9.0287,10.3627,-1.0376,0.6929,-0.5464
1764313274800,-13.3914,-6.9661,9.268,-1.0376,0.6929,-0.5464
1764313274810,-13.3914,-6.9661,9.268,0.1747,-0.8179,-0.2031
1764313274820,-12.0873,-5.141,9.2495,0.1747,-0.8179,-0.2031
1764313274830,-12.0873,-5.141,9.2495,1.12,-1.6646,0.1145
1764313274840,-10.2162,-3.8638,7.8838,1.12,-1.6646,0.1145
1764313274850,-10.2162,-3.8638,7.8838,0.991,-1.257,0.4235
1764313274860,-8.4849,-3.0808,6.7872,0.991,-1.257,0.4235
1764313274870,-8.4849,-3.0808,6.7872,0.991,-1.257,0.4235
1764313274880,-7.3346,-2.7643,6.4014,0.4493,-0.5867,0.6399
1764313274890,-7.3346,-2.7643,6.4014,0.4493,-0.5867,0.6399
1764313274900,-7.3346,-2.7643,6.4014,0.3128,-0.7052,0.6936
1764313274910,-6.6556,-2.616,6.7591,0.3128,-0.7052,0.6936
1764313274920,-6.6556,-2.616,6.7591,0.8593,-1.6446,0.6471
1764313274930,-6.3733,-2.589,7.2084,0.8593,-1.6446,0.6471
1764313274940,-6.3733,-2.589,7.2084,1.631,-2.7796,0.6284
1764313274950,-5.8499,-2.4293,6.9117,1.631,-2.7796,0.6284
1764313274960,-5.8499,-2.4293,6.9117,2.2732,-4.1163,0.6257
1764313274970,-4.3693,-1.6558,8.0142,2.2732,-4.1163,0.6257
1764313274980,-4.3693,-1.6558,8.0142,3.0604,-5.4584,0.4363
1764313274990,-3.0879,-0.9153,9.8327,3.0604,-5.4584,0.4363
1764313275000,-3.0879,-0.9153,9.8327,3.0604,-5.4584,0.4363
1764313275010,-2.7817,-0.6066,10.867,3.7724,-6.0729,0.2078
1764313275020,-2.7817,-0.6066,10.867,3.7724,-6.0729,0.2078
1764313275030,-2.7817,-0.6066,10.867,4.0671,-5.5929,0.2676
1764313275040,-2.1284,-0.0269,10.1198,4.0671,-5.5929,0.2676
1764313275050,-2.1284,-0.0269,10.1198,3.2898,-3.8194,0.6159
1764313275060,-0.6879,1.0068,9.2524,3.2898,-3.8194,0.6159
1764313275070,-0.6879,1.0068,9.2524,1.6837,-1.5314,0.8955
1764313275080,0.5629,2.0255,9.0485,1.6837,-1.5314,0.8955
1764313275090,0.5629,2.0255,9.0485,0.8312,-0.3965,0.852
1764313275100,0.6951,2.5155,8.8774,0.8312,-0.3965,0.852
1764313275110,0.6951,2.5155,8.8774,0.9526,-0.6022,0.5962
1764313275120,-0.0909,2.394,8.7416,0.9526,-0.6022,0.5962
1764313275130,-0.0909,2.394,8.7416,1.2903,-1.0986,0.4936
1764313275140,-0.5821,2.016,8.6859,1.2903,-1.0986,0.4936
1764313275150,-0.5821,2.016,8.6859,1.2903,-1.0986,0.4936
1764313275160,-0.5821,2.016,8.6859,1.1872,-0.9523,0.6846
1764313275170,-0.1322,2.2935,8.2026,1.1872,-0.9523,0.6846
1764313275180,-0.1322,2.2935,8.2026,0.6666,-0.2669,0.8613
1764313275190,0.737,2.6955,7.7462,0.6666,-0.2669,0.8613
1764313275200,0.737,2.6955,7.7462,0.1724,0.1868,0.8493
1764313275210,1.5535,3.0999,8.3061,0.1724,0.1868,0.8493
1764313275220,1.5535,3.0999,8.3061,0.0522,0.2279,0.635
1764313275230,0.9667,3.0006,8.9025,0.0522,0.2279,0.635
1764313275240,0.9667,3.0006,8.9025,0.2839,0.0145,0.5249
1764313275250,-0.4463,1.919,8.3186,0.2839,0.0145,0.5249
1764313275260,-0.4463,1.919,8.3186,0.5205,-0.2527,0.7839
1764313275270,-0.4463,1.919,8.3186,0.5205,-0.2527,0.7839
1764313275280,-0.2644,3.0036,7.4859,0.5205,-0.2527,0.7839
1764313275290,1.2951,2.9384,8.4048,0.1539,-0.2347,1.0573
1764313275300,1.2951,2.9384,8.4048,0.1539,-0.2347,1.0573
1764313275310,1.2951,2.9384,8.4048,-0.2947,0.0553,1.0936
1764313275320,2.857,3.3308,9.7849,-0.2947,0.0553,1.0936
1764313275330,2.857,3.3308,9.7849,-0.3815,0.3288,0.7677
1764313275340,2.7517,3.5414,10.2879,-0.3815,0.3288,0.7677
1764313275350,2.7517,3.5414,10.2879,-0.1368,0.2877,0.4565
1764313275360,2.0213,3.1717,10.0182,-0.1368,0.2877,0.4565
1764313275370,2.0213,3.1717,10.0182,0.0547,0.0913,0.3377
1764313275380,1.605,2.9133,9.996,0.0547,0.0913,0.3377
1764313275390,1.605,2.9133,9.996,0.217,-0.0235,0.3323
1764313275400,1.2215,2.72,9.7274,0.217,-0.0235,0.3323
1764313275410,1.2215,2.72,9.7274,0.217,-0.0235,0.3323
1764313275420,1.2215,2.72,9.7274,0.3042,-0.1243,0.3939
1764313275430,1.4052,2.7434,9.6156,0.3042,-0.1243,0.3939
1764313275440,1.4052,2.7434,9.6156,0.3186,-0.0706,0.4375
1764313275450,1.3077,2.7864,8.991,0.3186,-0.0706,0.4375
1764313275460,1.3077,2.7864,8.991,0.1914,0.0084,0.4904
1764313275470,1.3161,2.8965,8.7613,0.1914,0.0084,0.4904
1764313275480,1.3161,2.8965,8.7613,0.0319,0.0431,0.5316
1764313275490,2.406,3.323,9.2686,0.0319,0.0431,0.5316
1764313275500,2.406,3.323,9.2686,-0.0504,0.17,0.3654
1764313275510,2.4311,3.32,9.5892,-0.0504,0.17,0.3654
1764313275520,2.4311,3.32,9.5892,0.0368,0.1636,0.1405
1764313275530,1.2646,2.8487,9.728,0.0368,0.1636,0.1405
1764313275540,1.2646,2.8487,9.728,0.0368,0.1636,0.1405
1764313275550,0.8022,2.5669,9.4421,0.2665,-0.0858,0.1504
1764313275560,0.8022,2.5669,9.4421,0.2665,-0.0858,0.1504
1764313275570,0.8022,2.5669,9.4421,0.4669,-0.3546,0.2787
1764313275580,1.2873,3.0275,9.1531,0.4669,-0.3546,0.2787
1764313275590,1.2873,3.0275,9.1531,0.4965,-0.4042,0.3044
1764313275600,2.0734,3.4104,9.1274,0.4965,-0.4042,0.3044
1764313275610,2.0734,3.4104,9.1274,0.3279,-0.1037,0.2123
1764313275620,2.0734,3.4953,9.2237,0.3279,-0.1037,0.2123
1764313275630,2.0734,3.4953,9.2237,0.1791,0.1982,0.1593
1764313275640,1.6253,3.2865,9.1675,0.1791,0.1982,0.1593
1764313275650,1.6253,3.2865,9.1675,0.1724,0.1831,0.1915
1764313275660,1.7689,3.5061,9.2794,0.1724,0.1831,0.1915
1764313275670,1.7689,3.5061,9.2794,0.1724,0.1831,0.1915
1764313275680,2.1565,3.5414,9.2112,0.2782,0.0376,0.159
1764313275690,2.1565,3.5414,9.2112,0.2782,0.0376,0.159
1764313275700,2.1715,3.6389,8.997,0.343,-0.0455,0.0831
1764313275710,2.1715,3.6389,8.997,0.343,-0.0455,0.0831
1764313275720,2.1715,3.6389,8.997,0.3274,-0.1329,0.031
1764313275730,2.1535,3.725,9.1872,0.3274,-0.1329,0.031
1764313275740,2.1535,3.725,9.1872,0.3372,-0.1939,-0.0012
1764313275750,2.0692,3.7244,9.3972,0.3372,-0.1939,-0.0012
1764313275760,2.0692,3.7244,9.3972,0.4806,-0.3935,-0.0565
1764313275770,2.1565,3.7059,9.338,0.4806,-0.3935,-0.0565
1764313275780,2.1565,3.7059,9.338,0.742,-0.8073,-0.1425
1764313275790,2.2397,3.7633,9.0532,0.742,-0.8073,-0.1425
1764313275800,2.2397,3.7633,9.0532,1.1477,-1.4279,-0.3157
1764313275810,0.9248,3.3739,8.7655,1.1477,-1.4279,-0.3157
1764313275820,0.9248,3.3739,8.7655,1.1477,-1.4279,-0.3157
1764313275830,0.74,3.1286,8.5196,1.8135,-2.5207,-0.2277
1764313275840,0.74,3.1286,8.5196,1.8135,-2.5207,-0.2277
1764313275850,0.74,3.1286,8.5196,2.6684,-3.7936,-0.0802
1764313275860,1.404,3.5749,7.8389,2.6684,-3.7936,-0.0802
1764313275870,1.404,3.5749,7.8389,3.3947,-4.2739,0.0278
1764313275880,2.8487,4.7438,7.1175,3.3947,-4.2739,0.0278
1764313275890,2.8487,4.7438,7.1175,2.7892,-2.3063,0.4105
1764313275900,6.9523,6.8291,6.652,2.7892,-2.3063,0.4105
1764313275910,6.9523,6.8291,6.652,-0.5192,3.8625,0.6074
1764313275920,12.7651,9.7663,4.1539,-0.5192,3.8625,0.6074
1764313275930,12.7651,9.7663,4.1539,-5.8061,12.4137,-0.2695
1764313275940,14.5549,11.4042,1.2048,-5.8061,12.4137,-0.2695
1764313275950,14.5549,11.4042,1.2048,-5.8061,12.4137,-0.2695
1764313275960,11.4981,9.1202,-1.3274,-9.7775,19.1862,-1.8908
1764313275970,11.4981,9.1202,-1.3274,-9.7775,19.1862,-1.8908
1764313275980,11.4981,9.1202,-1.3274,-9.9256,20.7989,-3.6305
1764313275990,-0.466,1.3747,-6.7926,-9.9256,20.7989,-3.6305
1764313276000,-0.466,1.3747,-6.7926,-5.8043,13.0736,-3.8794
1764313276010,-14.0172,-3.9464,-8.3282,-5.8043,13.0736,-3.8794
1764313276020,-14.0172,-3.9464,-8.3282,-0.3265,0.7596,-3.2539
1764313276030,-16.5936,-7.6349,0.8919,-0.3265,0.7596,-3.2539
1764313276040,-16.5936,-7.6349,0.8919,-0.3265,0.7596,-3.2539
1764313276050,-9.7149,-6.3015,9.9745,2.0618,-4.8745,-1.6318
1764313276060,-9.7149,-6.3015,9.9745,0.6035,-1.7599,-0.7492
1764313276070,-7.0337,-3.3882,8.528,0.6035,-1.7599,-0.7492
1764313276080,-7.0337,-3.3882,8.528,0.6035,-1.7599,-0.7492
1764313276090,-9.6796,-3.4822,7.7306,-1.372,1.3216,-0.9704
1764313276100,-9.6796,-3.4822,7.7306,-1.372,1.3216,-0.9704
1764313276110,-9.6796,-3.4822,7.7306,-1.0218,0.5696,-1.1138
1764313276120,-11.7392,-3.9625,9.6203,-1.0218,0.5696,-1.1138
1764313276130,-11.7392,-3.9625,9.6203,0.6643,-1.1634,-0.863
1764313276140,-11.8672,-4.2048,9.4612,0.6643,-1.1634,-0.863
1764313276150,-11.8672,-4.2048,9.4612,1.4629,-1.678,-0.3424
1764313276160,-10.2473,-3.6054,7.4016,1.4629,-1.678,-0.3424
1764313276170,-10.2473,-3.6054,7.4016,1.1814,-1.6258,0.0273
1764313276180,-8.7978,-2.8361,6.9571,1.1814,-1.6258,0.0273
1764313276190,-8.7978,-2.8361,6.9571,1.0927,-2.0959,0.1662
1764313276200,-7.9202,-2.4915,7.5577,1.0927,-2.0959,0.1662
1764313276210,-7.9202,-2.4915,7.5577,1.7607,-3.4034,0.2334
1764313276220,-7.9202,-2.4915,7.5577,1.7607,-3.4034,0.2334
1764313276230,-6.3105,-2.0925,8.5053,1.7607,-3.4034,0.2334
1764313276240,-6.3105,-2.0925,8.5053,2.8336,-4.9941,0.13
1764313276250,-4.5547,-1.2796,9.2285,2.8336,-4.9941,0.13
1764313276260,-4.5547,-1.2796,9.2285,3.837,-6.2018,-0.1613
1764313276270,-3.3176,-0.5707,9.6096,3.837,-6.2018,-0.1613
1764313276280,-3.3176,-0.5707,9.6096,4.206,-6.4726,-0.3905
1764313276290,-2.7565,0.2375,9.9523,4.206,-6.4726,-0.3905
1764313276300,-2.7565,0.2375,9.9523,3.9928,-5.7317,-0.3844
1764313276310,-2.4024,0.9009,9.7304,3.9928,-5.7317,-0.3844
1764313276320,-2.4024,0.9009,9.7304,3.3756,-4.3222,-0.1115
1764313276330,-0.4804,2.0501,9.4899,3.3756,-4.3222,-0.1115
1764313276340,-0.4804,2.0501,9.4899,2.1776,-2.104,0.1194
1764313276350,0.8483,2.9539,8.4371,2.1776,-2.104,0.1194
1764313276360,0.8483,2.9539,8.4371,2.1776,-2.104,0.1194
1764313276370,0.8483,2.9539,8.4371,0.9465,-0.4417,-0.0017
1764313276380,0.4487,3.2148,7.3633,0.9465,-0.4417,-0.0017
1764313276390,0.4487,3.2148,7.3633,0.742,-0.8018,-0.1486
1764313276400,0.0718,3.411,8.193,0.742,-0.8018,-0.1486
1764313276410,0.0718,3.411,8.193,1.0841,-1.3021,-0.29
1764313276420,-0.1759,3.0305,8.187,1.0841,-1.3021,-0.29
1764313276430,-0.1759,3.0305,8.187,1.0055,-1.1825,-0.1947
1764313276440,0.0622,3.0628,8.3521,1.0055,-1.1825,-0.1947
1764313276450,0.0622,3.0628,8.3521,0.5194,-0.502,0.0209
1764313276460,0.917,3.3607,8.5137,0.5194,-0.502,0.0209
1764313276470,0.917,3.3607,8.5137,0.0828,0.1707,0.0586
1764313276480,1.1593,3.7107,7.8066,0.0828,0.1707,0.0586
1764313276490,1.1593,3.7107,7.8066,0.0828,0.1707,0.0586
1764313276500,1.1791,3.9272,7.8185,-0.0525,0.017,-0.0619
1764313276510,1.1791,3.9272,7.8185,-0.0525,0.017,-0.0619
1764313276520,1.1791,3.9272,7.8185,-0.0015,-0.4229,-0.2228
1764313276530,0.4947,3.4839,9.0449,-0.0015,-0.4229,-0.2228
1764313276540,0.4947,3.4839,9.0449,0.1646,-0.3354,-0.2121
1764313276550,-0.2937,2.7691,8.8008,0.1646,-0.3354,-0.2121
1764313276560,-0.2937,2.7691,8.8008,0.1009,-0.2569,0.1862
1764313276570,0.4606,3.591,8.3492,0.1009,-0.2569,0.1862
1764313276580,0.4606,3.591,8.3492,-0.1833,-0.3393,0.3787
1764313276590,1.992,3.883,9.4385,-0.1833,-0.3393,0.3787
1764313276600,1.992,3.883,9.4385,-0.2118,-0.2799,0.171
1764313276610,2.6142,4.2508,10.0002,-0.2118,-0.2799,0.171
1764313276620,2.6142,4.2508,10.0002,-0.2118,-0.2799,0.171
1764313276630,2.0177,3.9655,10.1438,-0.0044,-0.3386,-0.2085
1764313276640,2.0177,3.9655,10.1438,-0.0044,-0.3386,-0.2085
1764313276650,2.0177,3.9655,10.1438,0.1492,-0.2213,-0.3706
1764313276660,1.3322,3.5749,9.5683,0.1492,-0.2213,-0.3706
1764313276670,1.3322,3.5749,9.5683,0.1646,-0.1494,-0.337
1764313276680,0.8626,3.7645,9.0574,0.1646,-0.1494,-0.337
1764313276690,0.8626,3.7645,9.0574,0.1309,-0.1634,-0.2784
1764313276700,0.8297,3.6287,8.7829,0.1309,-0.1634,-0.2784
1764313276710,0.8297,3.6287,8.7829,0.1011,-0.2532,-0.2309
1764313276720,1.0636,3.6102,8.9384,0.1011,-0.2532,-0.2309
1764313276730,1.0636,3.6102,8.9384,0.108,-0.2495,-0.2243
1764313276740,1.413,3.8058,9.0239,0.108,-0.2495,-0.2243
1764313276750,1.413,3.8058,9.0239,0.0742,-0.0699,-0.2737
1764313276760,1.2377,3.7555,8.6889,0.0742,-0.0699,-0.2737
1764313276770,1.2377,3.7555,8.6889,0.0742,-0.0699,-0.2737
1764313276780,0.9715,3.6646,8.5005,-0.0249,0.069,-0.2949
1764313276790,0.9715,3.6646,8.5005,-0.0249,0.069,-0.2949
1764313276800,0.9715,3.6646,8.5005,-0.0577,0.0246,-0.2964
1764313276810,0.7884,3.6766,8.461,-0.0577,0.0246,-0.2964
1764313276820,0.7884,3.6766,8.461,-0.0484,-0.186,-0.3009
1764313276830,0.7561,3.588,8.7637,-0.0484,-0.186,-0.3009
1764313276840,0.7561,3.588,8.7637,-0.0191,-0.3219,-0.285
1764313276850,0.8698,3.6275,9.2632,-0.0191,-0.3219,-0.285
1764313276860,0.8698,3.6275,9.2632,0.002,-0.2905,-0.2842
1764313276870,0.9888,3.5958,9.4199,0.002,-0.2905,-0.2842
1764313276880,0.9888,3.5958,9.4199,-0.0017,-0.1732,-0.3118
1764313276890,1.6618,3.9446,9.7759,-0.0017,-0.1732,-0.3118
1764313276900,1.6618,3.9446,9.7759,-0.0017,-0.1732,-0.3118
1764313276910,1.4824,3.9111,10.0451,-0.0432,-0.0266,-0.4458
1764313276920,1.4824,3.9111,10.0451,-0.0432,-0.0266,-0.4458
1764313276930,1.4824,3.9111,10.0451,0.024,0.1045,-0.5461
1764313276940,1.0259,3.7579,10.0798,0.024,0.1045,-0.5461
1764313276950,1.0259,3.7579,10.0798,0.2143,0.0027,-0.5099
1764313276960,0.4229,3.277,9.7615,0.2143,0.0027,-0.5099
1764313276970,0.4229,3.277,9.7615,0.4039,-0.1333,-0.3265
1764313276980,0.3147,3.6963,9.0867,0.4039,-0.1333,-0.3265
1764313276990,0.3147,3.6963,9.0867,0.4342,-0.368,-0.2033
1764313277000,0.4941,3.792,8.8122,0.4342,-0.368,-0.2033
1764313277010,0.4941,3.792,8.8122,0.4224,-0.5687,-0.1393
1764313277020,0.8889,3.816,9.4576,0.4224,-0.5687,-0.1393
1764313277030,0.8889,3.816,9.4576,0.4224,-0.5687,-0.1393
1764313277040,1.3813,4.1575,9.469,0.5226,-0.5096,-0.0915
1764313277050,1.3813,4.1575,9.469,0.5226,-0.5096,-0.0915
1764313277060,1.3813,4.1575,9.469,0.608,-0.4982,-0.131
1764313277070,1.3268,4.2802,9.0532,0.608,-0.4982,-0.131
1764313277080,1.3268,4.2802,9.0532,0.8036,-0.7621,-0.1938
1764313277090,0.3984,4.2102,8.3671,0.8036,-0.7621,-0.1938
1764313277100,0.3984,4.2102,8.3671,1.1803,-1.3816,-0.1604
1764313277110,0.3811,4.1426,8.4688,1.1803,-1.3816,-0.1604
1764313277120,0.3811,4.1426,8.4688,1.4125,-1.8642,0.0542
1764313277130,1.1725,4.2419,8.6465,1.4125,-1.8642,0.0542
1764313277140,1.1725,4.2419,8.6465,1.5218,-1.908,0.1878
1764313277150,1.5984,4.4859,8.1751,1.5218,-1.908,0.1878
1764313277160,1.5984,4.4859,8.1751,1.5218,-1.908,0.1878
1764313277170,1.7767,4.7635,7.3328,1.6507,-1.9073,0.225
1764313277180,1.7767,4.7635,7.3328,1.6507,-1.9073,0.225
1764313277190,1.7767,4.7635,7.3328,1.6351,-1.7132,0.3096
1764313277200,2.6692,5.2038,7.483,1.6351,-1.7132,0.3096
1764313277210,2.6692,5.2038,7.483,0.7205,0.4468,0.6202
1764313277220,5.1506,6.3045,7.4034,0.7205,0.4468,0.6202
1764313277230,5.1506,6.3045,7.4034,-2.0236,6.032,0.7164
1764313277240,8.4861,9.3206,3.6957,-2.0236,6.032,0.7164
1764313277250,8.4861,9.3206,3.6957,-6.4703,13.0711,0.1955
1764313277260,9.8955,9.8393,-0.5396,-6.4703,13.0711,0.1955
1764313277270,9.8955,9.8393,-0.5396,-10.2665,18.4527,-1.159
1764313277280,4.9615,7.1797,-3.4181,-10.2665,18.4527,-1.159
1764313277290,4.9615,7.1797,-3.4181,-9.8548,17.0404,-2.6539
1764313277300,-5.732,0.3559,-6.0174,-9.8548,17.0404,-2.6539
1764313277310,-5.732,0.3559,-6.0174,-9.8548,17.0404,-2.6539
1764313277320,-5.732,0.3559,-6.0174,-4.9165,7.3215,-3.317
1764313277330,-14.7745,-5.61,-1.4225,-4.9165,7.3215,-3.317
1764313277340,-14.7745,-5.61,-1.4225,0.1898,-2.6501,-2.8208
1764313277350,-14.6548,-9.0317,7.2197,0.1898,-2.6501,-2.8208
1764313277360,-14.6548,-9.0317,7.2197,1.4678,-4.7446,-1.1367
1764313277370,-9.8524,-6.8052,10.9849,1.4678,-4.7446,-1.1367
1764313277380,-9.8524,-6.8052,10.9849,-0.2834,-1.5298,-0.268
1764313277390,-8.0794,-4.0134,10.4919,-0.2834,-1.5298,-0.268
1764313277400,-8.0794,-4.0134,10.4919,-1.5406,0.495,-0.1856
1764313277410,-9.1418,-3.0036,10.4644,-1.5406,0.495,-0.1856
1764313277420,-9.1418,-3.0036,10.4644,-0.7643,-0.4107,-0.2411
1764313277430,-9.8046,-2.7362,10.7791,-0.7643,-0.4107,-0.2411
1764313277440,-9.8046,-2.7362,10.7791,-0.7643,-0.4107,-0.2411
1764313277450,-8.9216,-2.6417,9.067,0.8126,-2.0878,-0.144
1764313277460,-8.9216,-2.6417,9.067,0.8126,-2.0878,-0.144
1764313277470,-8.9216,-2.6417,9.067,1.6014,-3.3271,0.0542
1764313277480,-6.722,-2.2337,8.4455,1.6014,-3.3271,0.0542
1764313277490,-6.722,-2.2337,8.4455,1.8314,-4.1574,0.0999
1764313277500,-4.864,-1.8233,9.868,1.8314,-4.1574,0.0999
1764313277510,-4.864,-1.8233,9.868,2.2982,-4.8281,-0.0037
1764313277520,-3.8859,-1.6923,11.2164,2.2982,-4.8281,-0.0037
1764313277530,-3.8859,-1.6923,11.2164,2.9172,-5.0699,-0.0235
1764313277540,-2.9785,-1.1868,11.8217,2.9172,-5.0699,-0.0235
1764313277550,-2.9785,-1.1868,11.8217,2.9636,-4.1249,0.1368
1764313277560,-2.2205,-0.4098,10.7545,2.9636,-4.1249,0.1368
1764313277570,-2.2205,-0.4098,10.7545,2.9636,-4.1249,0.1368
1764313277580,-2.2205,-0.4098,10.7545,2.2912,-2.5507,0.3662
1764313277590,-1.5422,0.7944,9.1902,2.2912,-2.5507,0.3662
1764313277600,-1.5422,0.7944,9.1902,1.4152,-1.1897,0.4901
1764313277610,-0.7178,1.6463,8.3761,1.4152,-1.1897,0.4901
1764313277620,-0.7178,1.6463,8.3761,0.6903,-0.2295,0.4012
1764313277630,-0.4032,2.1266,7.8389,0.6903,-0.2295,0.4012
1764313277640,-0.4032,2.1266,7.8389,0.4024,-0.1655,0.2419
1764313277650,-0.5964,2.0052,8.2331,0.4024,-0.1655,0.2419
1764313277660,-0.5964,2.0052,8.2331,0.5432,-0.6142,0.1272
1764313277670,-0.9188,1.5123,8.659,0.5432,-0.6142,0.1272
1764313277680,-0.9188,1.5123,8.659,0.8402,-1.2007,0.0808
1764313277690,-0.8106,1.3699,9.0652,0.8402,-1.2007,0.0808
1764313277700,-0.8106,1.3699,9.0652,1.0748,-1.5275,0.0832
1764313277710,-0.5707,1.6493,8.8899,1.0748,-1.5275,0.0832
1764313277720,-0.5707,1.6493,8.8899,1.0748,-1.5275,0.0832
1764313277730,-0.5707,1.6493,8.8899,0.9412,-1.3364,0.1491
1764313277740,-0.1119,1.9573,8.4622,0.9412,-1.3364,0.1491
1764313277750,-0.1119,1.9573,8.4622,0.4672,-0.8048,0.2395
1764313277760,0.4959,2.5974,8.4102,0.4672,-0.8048,0.2395
1764313277770,0.4959,2.5974,8.4102,0.0234,-0.3644,0.1987
1764313277780,1.072,2.7769,8.8104,0.0234,-0.3644,0.1987
1764313277790,1.072,2.7769,8.8104,-0.1074,-0.3386,0.0197
1764313277800,0.6,2.6877,9.064,-0.1074,-0.3386,0.0197
1764313277810,0.6,2.6877,9.064,0.0124,-0.4658,-0.0858
1764313277820,-0.2524,2.0195,8.7846,0.0124,-0.4658,-0.0858
1764313277830,-0.2524,2.0195,8.7846,0.0124,-0.4658,-0.0858
1764313277840,-0.1896,2.2798,9.1196,-0.0712,-0.3797,0.1058
1764313277850,-0.1896,2.2798,9.1196,-0.0712,-0.3797,0.1058
1764313277860,0.7693,1.8269,10.7785,-0.533,-0.0388,0.3564
1764313277870,0.7693,1.8269,10.7785,-0.533,-0.0388,0.3564
1764313277880,0.7693,1.8269,10.7785,-0.6382,0.4363,0.3612
1764313277890,1.1515,1.9095,10.806,-0.6382,0.4363,0.3612
1764313277900,1.1515,1.9095,10.806,-0.3111,0.1915,0.1549
1764313277910,0.6951,2.1428,10.5745,-0.3111,0.1915,0.1549
1764313277920,0.6951,2.1428,10.5745,0.1083,-0.2921,-0.0565
1764313277930,-0.0401,1.6786,10.6205,0.1083,-0.2921,-0.0565
1764313277940,-0.0401,1.6786,10.6205,0.1083,-0.2921,-0.0565
1764313277950,-0.4995,1.4853,10.6786,0.3074,-0.3798,-0.0105
1764313277960,-0.4995,1.4853,10.6786,0.3018,-0.0967,0.1935
1764313277970,-0.2931,1.6558,10.4345,0.3018,-0.0967,0.1935
1764313277980,-0.2931,1.6558,10.4345,0.3018,-0.0967,0.1935
1764313277990,-0.0383,1.8108,9.6018,0.2236,0.2306,0.3441
1764313278000,-0.0383,1.8108,9.6018,0.2236,0.2306,0.3441
1764313278010,-0.0383,1.8108,9.6018,0.1112,0.252,0.3642
1764313278020,0.1484,2.0291,9.2859,0.1112,0.252,0.3642
1764313278030,0.1484,2.0291,9.2859,0.086,0.1016,0.3176
1764313278040,0.0431,1.9992,9.4289,0.086,0.1016,0.3176
1764313278050,0.0431,1.9992,9.4289,0.1132,0.0559,0.3254
1764313278060,-0.0305,1.9591,9.3942,0.1132,0.0559,0.3254
1764313278070,-0.0305,1.9591,9.3942,0.0753,0.1264,0.3752
1764313278080,0.0431,1.8293,9.1711,0.0753,0.1264,0.3752
1764313278090,0.0431,1.8293,9.1711,0.031,0.133,0.4117
1764313278100,0.073,1.7982,9.0048,0.031,0.133,0.4117
1764313278110,0.073,1.7982,9.0048,0.031,0.133,0.4117
1764313278120,0.4499,1.8778,9.4983,0.0322,0.0145,0.4073
1764313278130,0.4499,1.8778,9.4983,0.0322,0.0145,0.4073
1764313278140,0.4499,1.8778,9.4983,0.1185,-0.0541,0.3528
1764313278150,0.2602,1.9059,9.3607,0.1185,-0.0541,0.3528
1764313278160,0.2602,1.9059,9.3607,0.1193,-0.0018,0.343
1764313278170,-0.0461,1.8855,8.9587,0.1193,-0.0018,0.343
1764313278180,-0.0461,1.8855,8.9587,-0.0284,-0.0174,0.4362
1764313278190,0.3129,1.9238,9.469,-0.0284,-0.0174,0.4362
1764313278200,0.3129,1.9238,9.469,-0.0915,-0.0157,0.4725
1764313278210,0.7119,1.791,10.1599,-0.0915,-0.0157,0.4725
1764313278220,0.7119,1.791,10.1599,-0.0174,0.0382,0.4919
1764313278230,0.8387,2.1374,10.3591,-0.0174,0.0382,0.4919
1764313278240,0.8387,2.1374,10.3591,-0.0174,0.0382,0.4919
1764313278250,1.0241,1.8245,10.5811,0.0877,0.0861,0.465
1764313278260,1.0241,1.8245,10.5811,0.0877,0.0861,0.465
1764313278270,1.0241,1.8245,10.5811,0.2126,-0.0072,0.4884
1764313278280,1.0229,2.1422,10.785,0.2126,-0.0072,0.4884
1764313278290,1.0229,2.1422,10.785,0.4296,-0.0736,0.4229
1764313278300,1.1838,2.5394,10.4267,0.4296,-0.0736,0.4229
1764313278310,1.1838,2.5394,10.4267,0.5666,-0.2335,0.2934
1764313278320,1.2885,2.6572,9.9188,0.5666,-0.2335,0.2934
1764313278330,1.2885,2.6572,9.9188,0.6072,-0.2938,0.1947
1764313278340,1.1563,2.6495,9.405,0.6072,-0.2938,0.1947
1764313278350,1.1563,2.6495,9.405,0.5237,-0.2604,0.181
1764313278360,0.9428,2.5831,9.2351,0.5237,-0.2604,0.181
1764313278370,0.9428,2.5831,9.2351,0.442,-0.2819,0.224
1764313278380,0.9428,2.5831,9.2351,0.442,-0.2819,0.224
1764313278390,1.0989,2.5735,9.3512,0.442,-0.2819,0.224
1764313278400,1.0989,2.5735,9.3512,0.4468,-0.3406,0.2237
1764313278410,1.678,2.7218,9.8166,0.4468,-0.3406,0.2237
1764313278420,1.678,2.7218,9.8166,0.5229,-0.3021,0.099
1764313278430,2.4628,2.875,10.6546,0.5229,-0.3021,0.099
1764313278440,2.4628,2.875,10.6546,0.5263,0.1216,-0.1197
1764313278450,1.5823,2.7182,10.3549,0.5263,0.1216,-0.1197
1764313278460,1.5823,2.7182,10.3549,0.5169,0.3051,-0.1593
1764313278470,0.5755,2.6495,9.5886,0.5169,0.3051,-0.1593
1764313278480,0.5755,2.6495,9.5886,0.6634,-0.0617,-0.0464
1764313278490,0.3912,2.8606,9.2351,0.6634,-0.0617,-0.0464
1764313278500,0.3912,2.8606,9.2351,0.9187,-0.6523,-0.0191
1764313278510,0.3649,2.8301,9.6096,0.9187,-0.6523,-0.0191
1764313278520,0.3649,2.8301,9.6096,0.9187,-0.6523,-0.0191
1764313278530,0.3649,2.8301,9.6096,1.2934,-1.1328,0.0728
1764313278540,0.6191,3.0072,9.3523,1.2934,-1.1328,0.0728
1764313278550,0.6191,3.0072,9.3523,1.4812,-1.1487,0.2066
1764313278560,1.133,3.2339,8.8074,1.4812,-1.1487,0.2066
1764313278570,1.133,3.2339,8.8074,1.1677,-0.296,0.4065
1764313278580,2.9779,4.1157,9.5055,1.1677,-0.296,0.4065
1764313278590,2.9779,4.1157,9.5055,0.0338,2.7614,0.6643
1764313278600,8.0554,6.938,10.4554,0.0338,2.7614,0.6643
1764313278610,8.0554,6.938,10.4554,-3.3547,10.182,0.4107
1764313278620,16.1737,10.6493,7.4195,-3.3547,10.182,0.4107
1764313278630,16.1737,10.6493,7.4195,-7.8912,19.0808,-1.389
1764313278640,12.7346,8.0399,0.8243,-7.8912,19.0808,-1.389
1764313278650,12.7346,8.0399,0.8243,-7.8912,19.0808,-1.389
1764313278660,-7.5775,0.7149,-12.6341,-8.1737,20.856,-3.4445
1764313278670,-7.5775,0.7149,-12.6341,-8.1737,20.856,-3.4445
1764313278680,-7.5775,0.7149,-12.6341,-2.5998,7.6902,-3.3556
1764313278690,-20.8989,-5.342,-10.0995,-2.5998,7.6902,-3.3556
1764313278700,-20.8989,-5.342,-10.0995,2.4928,-5.9471,-1.4945
1764313278710,-12.6497,-6.4714,8.6034,2.4928,-5.9471,-1.4945
1764313278720,-12.6497,-6.4714,8.6034,2.5945,-4.8506,0.4244
1764313278730,-3.8351,-0.807,8.8744,2.5945,-4.8506,0.4244
1764313278740,-3.8351,-0.807,8.8744,-0.4704,0.701,-0.009
1764313278750,-5.6166,0.3745,4.2957,-0.4704,0.701,-0.009
1764313278760,-5.6166,0.3745,4.2957,-1.9071,1.3228,-0.7228
1764313278770,-9.8548,-1.3035,7.2808,-1.9071,1.3228,-0.7228
1764313278780,-9.8548,-1.3035,7.2808,-1.9071,1.3228,-0.7228
1764313278790,-11.1045,-2.5825,10.1827,-0.3523,-1.2703,-0.7738
1764313278800,-11.1045,-2.5825,10.1827,-0.3523,-1.2703,-0.7738
1764313278810,-11.1045,-2.5825,10.1827,1.5096,-3.0449,-0.3615
1764313278820,-10.9238,-2.8367,7.2849,1.5096,-3.0449,-0.3615
1764313278830,-10.9238,-2.8367,7.2849,2.127,-4.4126,0.1515
1764313278840,-8.6225,-1.3896,5.7224,2.127,-4.4126,0.1515
1764313278850,-8.6225,-1.3896,5.7224,2.5168,-6.3619,0.1939
1764313278860,-6.2297,-0.6664,7.9268,2.5168,-6.3619,0.1939
1764313278870,-6.2297,-0.6664,7.9268,3.3387,-8.2131,0.0286
1764313278880,-3.6,-0.1161,11.6022,3.3387,-8.2131,0.0286
1764313278890,-3.6,-0.1161,11.6022,4.1018,-8.4252,-0.0293
1764313278900,-1.0804,0.7304,13.6295,4.1018,-8.4252,-0.0293
1764313278910,-1.0804,0.7304,13.6295,4.0574,-6.5515,-0.0069
1764313278920,0.3745,1.9274,12.8112,4.0574,-6.5515,-0.0069
1764313278930,0.3745,1.9274,12.8112,4.0574,-6.5515,-0.0069
1764313278940,0.868,3.0185,9.5773,3.038,-3.5397,0.0212
1764313278950,0.868,3.0185,9.5773,3.038,-3.5397,0.0212
1764313278960,0.868,3.0185,9.5773,1.6063,-1.1038,0.0432
1764313278970,0.652,3.7484,7.5027,1.6063,-1.1038,0.0432
1764313278980,0.652,3.7484,7.5027,0.4635,0.4249,0.0383
1764313278990,0.1119,3.6981,5.9515,0.4635,0.4249,0.0383
1764313279000,0.1119,3.6981,5.9515,-0.1461,0.693,0.0176
1764313279010,-0.0108,3.4104,6.4546,-0.1461,0.693,0.0176
1764313279020,-0.0108,3.4104,6.4546,-0.141,0.2214,-0.0257
1764313279030,0.0383,2.7165,7.8706,-0.141,0.2214,-0.0257
1764313279040,0.0383,2.7165,7.8706,0.1466,-0.166,-0.0163
1764313279050,0.1711,2.5783,8.1948,0.1466,-0.166,-0.0163
1764313279060,0.1711,2.5783,8.1948,0.1466,-0.166,-0.0163
1764313279070,0.3541,2.9001,8.1009,0.2477,-0.3387,-0.0108
1764313279080,0.3541,2.9001,8.1009,0.2477,-0.3387,-0.0108
1764313279090,0.3541,2.9001,8.1009,0.0933,-0.4872,-0.057
1764313279100,0.6191,3.3069,8.8642,0.0933,-0.4872,-0.057
1764313279110,0.6191,3.3069,8.8642,-0.011,-0.4652,-0.1587
1764313279120,0.262,3.347,9.551,-0.011,-0.4652,-0.1587
1764313279130,0.262,3.347,9.551,0.0283,-0.3288,-0.2338
1764313279140,-0.8297,2.7165,9.8124,0.0283,-0.3288,-0.2338
1764313279150,-0.8297,2.7165,9.8124,0.0913,-0.2715,0.0588
1764313279160,-0.7496,3.0544,9.1579,0.0913,-0.2715,0.0588
1764313279170,-0.7496,3.0544,9.1579,0.0562,-0.6338,0.2387
1764313279180,0.4612,3.4181,9.737,0.0562,-0.6338,0.2387
1764313279190,0.4612,3.4181,9.737,0.0562,-0.6338,0.2387
1764313279200,1.401,3.6736,10.0528,0.1617,-0.7784,0.1712
1764313279210,1.401,3.6736,10.0528,0.1617,-0.7784,0.1712
1764313279220,1.401,3.6736,10.0528,0.2346,-0.6686,-0.0118
1764313279230,1.2359,3.6096,9.7017,0.2346,-0.6686,-0.0118
1764313279240,1.2359,3.6096,9.7017,0.2353,-0.4866,-0.0982
1764313279250,0.9972,3.5492,9.3781,0.2353,-0.4866,-0.0982
1764313279260,0.9972,3.5492,9.3781,0.2188,-0.3581,-0.0838
1764313279270,1.3101,3.6598,9.1609,0.2188,-0.3581,-0.0838
1764313279280,1.3101,3.6598,9.1609,0.1816,-0.2726,-0.0939
1764313279290,1.8293,3.9805,9.0915,0.1816,-0.2726,-0.0939
1764313279300,1.8293,3.9805,9.0915,0.1083,-0.1513,-0.1979
1764313279310,1.8939,4.081,9.0269,0.1083,-0.1513,-0.1979
1764313279320,1.8939,4.081,9.0269,0.1083,-0.1513,-0.1979
1764313279330,1.4961,3.7932,9.0532,0.0562,-0.1049,-0.3204
1764313279340,1.4961,3.7932,9.0532,0.0562,-0.1049,-0.3204
1764313279350,1.4961,3.7932,9.0532,0.0481,-0.0742,-0.3502
1764313279360,1.0941,3.7011,8.8857,0.0481,-0.0742,-0.3502
1764313279370,1.0941,3.7011,8.8857,0.038,-0.1419,-0.3482
1764313279380,0.9206,3.6,8.8552,0.038,-0.1419,-0.3482
1764313279390,0.9206,3.6,8.8552,0.0411,-0.1982,-0.3578
1764313279400,0.804,3.4828,8.9121,0.0411,-0.1982,-0.3578
1764313279410,0.804,3.4828,8.9121,0.0257,-0.2059,-0.358
1764313279420,0.7675,3.4217,9.2776,0.0257,-0.2059,-0.358
1764313279430,0.7675,3.4217,9.2776,0.0667,-0.2601,-0.3587
1764313279440,0.6209,3.481,9.4834,0.0667,-0.2601,-0.3587
1764313279450,0.6209,3.481,9.4834,0.2078,-0.4152,-0.3517
1764313279460,0.2901,3.332,9.3428,0.2078,-0.4152,-0.3517
1764313279470,0.2901,3.332,9.3428,0.2078,-0.4152,-0.3517
1764313279480,0.2901,3.332,9.3428,0.4215,-0.8635,-0.2989
1764313279490,0.1543,3.2782,9.5617,0.4215,-0.8635,-0.2989
1764313279500,0.1543,3.2782,9.5617,0.7902,-1.4285,-0.1962
1764313279510,0.8393,3.6227,9.929,0.7902,-1.4285,-0.1962
1764313279520,0.8393,3.6227,9.929,1.0602,-1.58,-0.1312
1764313279530,1.5009,3.9446,9.5725,1.0602,-1.58,-0.1312
1764313279540,1.5009,3.9446,9.5725,1.014,-1.2981,-0.1042
1764313279550,1.5715,4.1719,8.6973,1.014,-1.2981,-0.1042
1764313279560,1.5715,4.1719,8.6973,0.8467,-1.1364,-0.0464
1764313279570,1.5793,4.4919,8.2708,0.8467,-1.1364,-0.0464
1764313279580,1.5793,4.4919,8.2708,0.8467,-1.1364,-0.0464
1764313279590,1.5793,4.4919,8.2708,0.8328,-1.2769,-0.0151
1764313279600,2.0064,4.7916,8.3767,0.8328,-1.2769,-0.0151
1764313279610,2.5567,4.9902,8.5442,0.8654,-1.2984,-0.0452
1764313279620,2.5567,4.9902,8.5442,0.8654,-1.2984,-0.0452
1764313279630,2.5567,4.9902,8.5442,0.7025,-0.8635,-0.0745
1764313279640,2.6046,5.0423,8.0178,0.7025,-0.8635,-0.0745
1764313279650,2.6046,5.0423,8.0178,0.3807,-0.3505,-0.0939
1764313279660,2.1888,4.9687,7.7539,0.3807,-0.3505,-0.0939
1764313279670,2.1888,4.9687,7.7539,0.1889,-0.1793,-0.0562
1764313279680,2.0166,4.803,7.9167,0.1889,-0.1793,-0.0562
1764313279690,2.0166,4.803,7.9167,0.2152,-0.243,0.0261
1764313279700,2.214,4.7982,7.9555,0.2152,-0.243,0.0261
1764313279710,2.214,4.7982,7.9555,0.1779,-0.1252,0.1019
1764313279720,2.5729,5.0596,7.608,0.1779,-0.1252,0.1019
1764313279730,2.5729,5.0596,7.608,0.1779,-0.1252,0.1019
1764313279740,2.8361,5.205,7.4387,-0.0257,0.1164,0.1266
1764313279750,2.8361,5.205,7.4387,-0.0257,0.1164,0.1266
1764313279760,2.8361,5.205,7.4387,-0.162,0.1313,0.0875
1764313279770,2.8558,5.0172,7.8724,-0.162,0.1313,0.0875
1764313279780,2.8558,5.0172,7.8724,-0.0313,-0.1225,0.0354
1764313279790,2.7817,4.867,8.3204,-0.0313,-0.1225,0.0354
1764313279800,2.7817,4.867,8.3204,0.192,-0.317,0.0347
1764313279810,2.787,4.9005,8.1823,0.192,-0.317,0.0347
1764313279820,2.787,4.9005,8.1823,0.2225,-0.2552,0.0802
1764313279830,2.9085,5.0841,8.0082,0.2225,-0.2552,0.0802
1764313279840,2.9085,5.0841,8.0082,0.0835,0.0316,0.1272
1764313279850,2.991,5.1033,7.9107,0.0835,0.0316,0.1272
1764313279860,2.991,5.1033,7.9107,-0.0615,0.2743,0.1431
1764313279870,3.0981,5.1703,8.0028,-0.0615,0.2743,0.1431
1764313279880,3.0981,5.1703,8.0028,-0.0615,0.2743,0.1431
1764313279890,3.0981,5.1703,8.0028,-0.0631,0.3045,0.0728
1764313279900,3.4696,5.2977,8.4162,-0.0631,0.3045,0.0728
1764313279910,3.4696,5.2977,8.4162,0.06,0.2943,-0.1025
1764313279920,3.3129,5.1721,8.1769,0.06,0.2943,-0.1025
1764313279930,3.3129,5.1721,8.1769,0.1495,0.2181,-0.2634
1764313279940,2.0901,5.0429,8.2343,0.1495,0.2181,-0.2634
1764313279950,2.0901,5.0429,8.2343,0.3083,0.2037,-0.2925
1764313279960,0.6891,4.3597,9.1322,0.3083,0.2037,-0.2925
1764313279970,0.6891,4.3597,9.1322,0.509,0.7503,0.2057
1764313279980,1.9783,4.5332,7.855,0.509,0.7503,0.2057
1764313279990,1.9783,4.5332,7.855,0.509,0.7503,0.2057
1764313280000,3.1669,5.272,9.1825,0.2469,0.784,0.4223
1764313280010,3.1669,5.272,9.1825,0.2469,0.784,0.4223
1764313280020,3.3326,5.6518,8.461,0.3853,0.6709,0.3832
1764313280030,3.3326,5.6518,8.461,0.3853,0.6709,0.3832
1764313280040,3.3326,5.6518,8.461,0.9969,-0.6555,0.1805
1764313280050,3.0867,5.7846,9.3416,0.9969,-0.6555,0.1805
1764313280060,3.0867,5.7846,9.3416,1.6593,-1.3746,-0.002
1764313280070,2.5155,5.8325,8.534,1.6593,-1.3746,-0.002
1764313280080,2.5155,5.8325,8.534,1.4983,-0.9441,0.0774
1764313280090,2.8331,5.9378,7.7653,1.4983,-0.9441,0.0774
1764313280100,2.8331,5.9378,7.7653,1.4983,-0.9441,0.0774
1764313280110,3.0467,6.146,7.3238,0.9273,0.0076,0.1895
1764313280120,3.0467,6.146,7.3238,0.5596,0.6306,0.1915
1764313280130,2.817,6.2704,6.1926,0.5596,0.6306,0.1915
1764313280140,2.817,6.2704,6.1926,0.5596,0.6306,0.1915
1764313280150,2.4042,6.2243,6.0616,0.6113,0.2413,0.1138
1764313280160,2.4042,6.2243,6.0616,0.6113,0.2413,0.1138
1764313280170,2.4042,6.2243,6.0616,0.8341,-0.2987,0.0933
1764313280180,2.0417,5.8977,6.2136,0.8341,-0.2987,0.0933
1764313280190,2.0417,5.8977,6.2136,0.7746,-0.2515,0.2465
1764313280200,2.5304,6.0969,6.2806,0.7746,-0.2515,0.2465
1764313280210,2.5304,6.0969,6.2806,0.429,0.3468,0.3629
1764313280220,3.0455,6.4379,5.921,0.429,0.3468,0.3629
1764313280230,3.0455,6.4379,5.921,0.0906,0.8354,0.3471
1764313280240,3.146,6.5384,5.4778,0.0906,0.8354,0.3471
1764313280250,3.146,6.5384,5.4778,-0.1538,1.0982,0.2509
1764313280260,3.1813,6.451,5.4903,-0.1538,1.0982,0.2509
1764313280270,3.1813,6.451,5.4903,-0.1538,1.0982,0.2509
1764313280280,4.4106,6.6634,6.6012,-0.5869,1.8613,0.1773
1764313280290,4.4106,6.6634,6.6012,-0.5869,1.8613,0.1773
1764313280300,4.4106,6.6634,6.6012,-1.8134,4.6033,0.1739
1764313280310,7.4913,8.0895,6.0012,-1.8134,4.6033,0.1739
1764313280320,7.4913,8.0895,6.0012,-4.2397,9.445,-0.1967
1764313280330,9.2429,9.9434,3.3613,-4.2397,9.445,-0.1967
1764313280340,9.2429,9.9434,3.3613,-6.822,14.1511,-1.1267
1764313280350,8.8134,10.0367,0.3793,-6.822,14.1511,-1.1267
1764313280360,8.8134,10.0367,0.3793,-7.5642,15.4179,-2.4764
1764313280370,6.0048,7.5212,-1.3603,-7.5642,15.4179,-2.4764
1764313280380,6.0048,7.5212,-1.3603,-5.9457,12.9102,-4.0175
1764313280390,-4.2383,1.1833,-4.3723,-5.9457,12.9102,-4.0175
1764313280400,-4.2383,1.1833,-4.3723,-5.9457,12.9102,-4.0175
1764313280410,-17.4162,-7.7306,-4.3579,-3.0572,6.6338,-4.618
1764313280420,-17.4162,-7.7306,-4.3579,-3.0572,6.6338,-4.618
1764313280430,-17.4162,-7.7306,-4.3579,-0.6666,-0.7999,-3.0697
1764313280440,-17.8475,-10.6259,6.2614,-0.6666,-0.7999,-3.0697
1764313280450,-17.8475,-10.6259,6.2614,0.3629,-2.4807,-1.0542
1764313280460,-12.5898,-6.9212,10.0481,0.3629,-2.4807,-1.0542
1764313280470,-12.5898,-6.9212,10.0481,-0.1156,-0.3725,-0.3937
1764313280480,-11.6483,-4.6259,6.9739,-0.1156,-0.3725,-0.3937
1764313280490,-11.6483,-4.6259,6.9739,-0.5212,0.2899,-0.263
1764313280500,-12.0485,-3.0209,5.677,-0.5212,0.2899,-0.263
1764313280510,-12.0485,-3.0209,5.677,-0.0284,-0.6982,-0.1347
1764313280520,-11.8989,-2.3198,5.4233,-0.0284,-0.6982,-0.1347
1764313280530,-11.8989,-2.3198,5.4233,0.4334,-1.617,0.1996
1764313280540,-11.8989,-2.3198,5.4233,0.4334,-1.617,0.1996
1764313280550,-11.1332,-1.9478,4.6469,0.4334,-1.617,0.1996
1764313280560,-10.0989,-1.7551,3.5222,0.5747,-2.4294,0.5608
1764313280570,-10.0989,-1.7551,3.5222,0.5747,-2.4294,0.5608
1764313280580,-10.0989,-1.7551,3.5222,0.7367,-3.8804,0.8285
1764313280590,-7.7779,-1.4297,3.7866,0.7367,-3.8804,0.8285
1764313280600,-7.7779,-1.4297,3.7866,1.3289,-6.1589,0.8071
1764313280610,-5.1924,-1.1934,7.2299,1.3289,-6.1589,0.8071
1764313280620,-5.1924,-1.1934,7.2299,2.7112,-8.4492,0.628
1764313280630,-2.9862,-0.5964,11.3246,2.7112,-8.4492,0.628
1764313280640,-2.9862,-0.5964,11.3246,4.1927,-9.2474,0.4664
1764313280650,-1.547,0.1292,12.2178,4.1927,-9.2474,0.4664
1764313280660,-1.547,0.1292,12.2178,4.7037,-8.3239,0.5043
1764313280670,-0.3637,1.4154,9.4516,4.7037,-8.3239,0.5043
1764313280680,-0.3637,1.4154,9.4516,4.7037,-8.3239,0.5043
1764313280690,-0.3637,1.4154,9.4516,4.0636,-6.9222,0.6
1764313280700,1.4752,2.796,8.4437,4.0636,-6.9222,0.6
1764313280710,1.4752,2.796,8.4437,3.1376,-5.2655,0.6642
1764313280720,3.3805,3.5731,9.3739,3.1376,-5.2655,0.6642
1764313280730,3.3805,3.5731,9.3739,2.0722,-2.7095,0.6834
1764313280740,4.2796,4.0295,8.4933,2.0722,-2.7095,0.6834
1764313280750,4.2796,4.0295,8.4933,0.691,-0.0983,0.6472
1764313280760,4.0295,4.3992,6.2309,0.691,-0.0983,0.6472
1764313280770,4.0295,4.3992,6.2309,-0.2277,0.7527,0.509
1764313280780,3.8321,4.7569,6.2776,-0.2277,0.7527,0.509
1764313280790,3.8321,4.7569,6.2776,-0.3571,0.4139,0.2757
1764313280800,3.5527,4.4662,7.8963,-0.3571,0.4139,0.2757
1764313280810,3.5527,4.4662,7.8963,-0.0892,0.0434,0.1645
1764313280820,3.5988,3.9482,9.0293,-0.0892,0.0434,0.1645
1764313280830,3.5988,3.9482,9.0293,-0.0892,0.0434,0.1645
1764313280840,3.5988,3.9482,9.0293,0.0704,0.172,0.1507
1764313280850,3.6066,3.7759,9.1771,0.0704,0.172,0.1507
1764313280860,3.6066,3.7759,9.1771,-0.0237,0.591,0.1846
1764313280870,3.4235,3.6562,8.5597,-0.0237,0.591,0.1846
1764313280880,3.4235,3.6562,8.5597,-0.232,0.7784,0.228
1764313280890,2.7021,3.9206,8.2134,-0.232,0.7784,0.228
1764313280900,2.7021,3.9206,8.2134,-0.232,0.7784,0.228
1764313280910,2.1165,3.5874,8.1374,-0.2155,0.6594,0.2468
1764313280920,2.1165,3.5874,8.1374,-0.1432,0.4963,0.4236
1764313280930,2.6812,4.3358,7.8359,-0.1432,0.4963,0.4236
1764313280940,2.6812,4.3358,7.8359,-0.1432,0.4963,0.4236
1764313280950,2.6812,4.3358,7.8359,-0.2595,0.0993,0.3251
1764313280960,3.1286,3.9446,9.1322,-0.2595,0.0993,0.3251
1764313280970,3.1286,3.9446,9.1322,-0.1513,0.093,0.1327
1764313280980,3.4205,3.9547,9.3404,-0.1513,0.093,0.1327
1764313280990,3.4205,3.9547,9.3404,0.0037,0.0516,-0.1153
1764313281000,2.8104,3.7645,9.2088,0.0037,0.0516,-0.1153
1764313281010,2.8104,3.7645,9.2088,0.0985,0.0104,-0.23
1764313281020,2.1948,3.5683,9.0209,0.0985,0.0104,-0.23
1764313281030,2.1948,3.5683,9.0209,0.1425,-0.0502,-0.221
1764313281040,1.9603,3.5958,8.7942,0.1425,-0.0502,-0.221
1764313281050,1.9603,3.5958,8.7942,0.1266,-0.1155,-0.1796
1764313281060,2.0518,3.6503,8.8164,0.1266,-0.1155,-0.1796
1764313281070,2.0518,3.6503,8.8164,0.1185,-0.1396,-0.1666
1764313281080,2.3067,3.6449,8.7721,0.1185,-0.1396,-0.1666
1764313281090,2.3067,3.6449,8.7721,0.1185,-0.1396,-0.1666
1764313281100,2.2911,3.6114,8.5077,0.1153,-0.0829,-0.197
1764313281110,2.2911,3.6114,8.5077,0.1153,-0.0829,-0.197
1764313281120,2.2911,3.6114,8.5077,0.0635,-0.0938,-0.2185
1764313281130,2.0495,3.4947,8.6255,0.0635,-0.0938,-0.2185
1764313281140,2.0495,3.4947,8.6255,0.0339,-0.1093,-0.1897
1764313281150,2.0518,3.5545,8.8164,0.0339,-0.1093,-0.1897
1764313281160,2.0518,3.5545,8.8164,-0.0701,0.0919,-0.1425
1764313281170,2.3737,3.7268,9.0628,-0.0701,0.0919,-0.1425
1764313281180,2.3737,3.7268,9.0628,-0.2158,0.3615,-0.1764
1764313281190,2.5424,3.8506,9.4756,-0.2158,0.3615,-0.1764
1764313281200,2.5424,3.8506,9.4756,-0.2158,0.3615,-0.1764
1764313281210,2.2624,3.7388,9.7657,-0.2735,0.4633,-0.279
1764313281220,2.2624,3.7388,9.7657,-0.2735,0.4633,-0.279
1764313281230,1.8341,3.4792,9.8842,-0.009,0.1171,-0.3609
1764313281240,1.8341,3.4792,9.8842,-0.009,0.1171,-0.3609
1764313281250,1.8341,3.4792,9.8842,0.4053,-0.3317,-0.3787
1764313281260,1.6116,3.4235,9.5222,0.4053,-0.3317,-0.3787
1764313281270,1.6116,3.4235,9.5222,0.6269,-0.5635,-0.3196
1764313281280,1.8078,3.5719,9.1394,0.6269,-0.5635,-0.3196
1764313281290,1.8078,3.5719,9.1394,0.5608,-0.3235,-0.2285
1764313281300,1.9364,3.7633,8.3049,0.5608,-0.3235,-0.2285
1764313281310,1.9364,3.7633,8.3049,0.2773,-0.0412,-0.1662
1764313281320,2.0465,4.0612,8.1595,0.2773,-0.0412,-0.1662
1764313281330,2.0465,4.0612,8.1595,0.0127,0.1909,-0.1555
1764313281340,2.2959,4.1551,8.1978,0.0127,0.1909,-0.1555
1764313281350,2.2959,4.1551,8.1978,-0.0308,0.0397,-0.2508
1764313281360,2.3133,4.2497,8.6172,-0.0308,0.0397,-0.2508
1764313281370,2.3133,4.2497,8.6172,-0.0308,0.0397,-0.2508
1764313281380,2.3133,4.2497,8.6172,0.2094,-0.2921,-0.3925
1764313281390,2.1236,4.1139,8.863,0.2094,-0.2921,-0.3925
1764313281400,2.1236,4.1139,8.863,0.3987,-0.4878,-0.4501
1764313281410,2.1583,4.27,8.8534,0.3987,-0.4878,-0.4501
1764313281420,2.1583,4.27,8.8534,0.4239,-0.4499,-0.4804
1764313281430,2.1344,4.4285,8.5202,0.4239,-0.4499,-0.4804
1764313281440,2.1344,4.4285,8.5202,0.2802,-0.3082,-0.463
1764313281450,1.8443,4.4381,8.2379,0.2802,-0.3082,-0.463
1764313281460,1.8443,4.4381,8.2379,0.1463,-0.2885,-0.4189
1764313281470,1.9035,4.4841,8.2875,0.1463,-0.2885,-0.4189
1764313281480,1.9035,4.4841,8.2875,0.1975,-0.5776,-0.4597
1764313281490,1.8359,4.2897,8.7129,0.1975,-0.5776,-0.4597
1764313281500,1.8359,4.2897,8.7129,0.1975,-0.5776,-0.4597
1764313281510,1.4052,3.9643,9.2806,0.4876,-1.076,-0.5464
1764313281520,1.4052,3.9643,9.2806,0.4876,-1.076,-0.5464
1764313281530,1.4052,3.9643,9.2806,0.8645,-1.2859,-0.4291
1764313281540,1.389,4.1396,8.6895,0.8645,-1.2859,-0.4291
1764313281550,1.389,4.1396,8.6895,0.8796,-1.1561,-0.2508
1764313281560,1.3908,4.4776,8.0842,0.8796,-1.1561,-0.2508
1764313281570,1.3908,4.4776,8.0842,0.6501,-0.6953,0.0139
1764313281580,1.943,4.9974,8.3557,0.6501,-0.6953,0.0139
1764313281590,1.943,4.9974,8.3557,-0.0964,0.9184,0.3308
1764313281600,5.1954,6.0215,10.8873,-0.0964,0.9184,0.3308
1764313281610,5.1954,6.0215,10.8873,-2.0285,5.5158,0.3783
1764313281620,9.0317,7.7396,12.0263,-2.0285,5.5158,0.3783
1764313281630,9.0317,7.7396,12.0263,-2.0285,5.5158,0.3783
1764313281640,9.0317,7.7396,12.0263,-4.9023,12.4742,-0.1542
1764313281650,8.7529,8.4526,7.0798,-4.9023,12.4742,-0.1542
1764313281660,8.7529,8.4526,7.0798,-7.1833,17.391,-0.9662
1764313281670,4.8562,7.0923,1.2299,-7.1833,17.391,-0.9662
1764313281680,4.8562,7.0923,1.2299,-6.9223,16.7942,-1.8196
1764313281690,-2.8971,3.5492,-3.3978,-6.9223,16.7942,-1.8196
1764313281700,-2.8971,3.5492,-3.3978,-3.5349,9.4519,-2.3702
1764313281710,-9.6401,1.139,-5.6901,-3.5349,9.4519,-2.3702
1764313281720,-9.6401,1.139,-5.6901,0.4534,-0.3106,-2.9031
1764313281730,-13.0253,-3.7615,0.1789,0.4534,-0.3106,-2.9031
1764313281740,-13.0253,-3.7615,0.1789,1.8685,-4.8665,-1.9035
1764313281750,-10.3866,-5.1829,7.9717,1.8685,-4.8665,-1.9035
1764313281760,-10.3866,-5.1829,7.9717,1.8685,-4.8665,-1.9035
1764313281770,-7.2802,-2.7153,8.659,1.0321,-3.1837,-0.7175
1764313281780,-7.2802,-2.7153,8.659,1.0321,-3.1837,-0.7175
1764313281790,-7.2802,-2.7153,8.659,-0.2857,-0.6038,-0.6351
1764313281800,-8.1529,-2.455,6.9787,-0.2857,-0.6038,-0.6351
1764313281810,-8.1529,-2.455,6.9787,-0.6064,-0.6562,-0.7367
1764313281820,-9.7089,-2.2935,7.66,-0.6064,-0.6562,-0.7367
1764313281830,-9.7089,-2.2935,7.66,0.3038,-2.308,-0.6376
1764313281840,-9.6383,-2.26,7.9119,0.3038,-2.308,-0.6376
1764313281850,-9.6383,-2.26,7.9119,1.4523,-4.2696,-0.3859
1764313281860,-7.8114,-1.6989,8.1846,1.4523,-4.2696,-0.3859
1764313281870,-7.8114,-1.6989,8.1846,2.4984,-6.1097,-0.2784
1764313281880,-4.684,-0.734,9.7579,2.4984,-6.1097,-0.2784
1764313281890,-4.684,-0.734,9.7579,2.4984,-6.1097,-0.2784
1764313281900,-4.684,-0.734,9.7579,3.3456,-7.2496,-0.5282
1764313281910,-2.7182,0.1466,12.3117,3.3456,-7.2496,-0.5282
1764313281920,-2.7182,0.1466,12.3117,3.7612,-6.834,-0.6813
1764313281930,-2.4293,0.4941,12.8076,3.7612,-6.834,-0.6813
1764313281940,-2.4293,0.4941,12.8076,3.3595,-4.9799,-0.4556
1764313281950,-2.4586,0.7669,11.1171,3.3595,-4.9799,-0.4556
1764313281960,-2.4586,0.7669,11.1171,2.4884,-3.2032,0.0069
1764313281970,-1.5565,1.7384,9.8524,2.4884,-3.2032,0.0069
1764313281980,-1.5565,1.7384,9.8524,2.0334,-2.394,0.2812
1764313281990,-0.064,3.0598,9.5121,2.0334,-2.394,0.2812
1764313282000,-0.064,3.0598,9.5121,1.8485,-1.7738,0.1979
1764313282010,0.4199,3.3823,8.1751,1.8485,-1.7738,0.1979
1764313282020,0.4199,3.3823,8.1751,1.4267,-1.3173,0.0741
1764313282030,0.1926,3.3374,7.4213,1.4267,-1.3173,0.0741
1764313282040,0.1926,3.3374,7.4213,1.4267,-1.3173,0.0741
1764313282050,0.1926,3.3374,7.4213,0.9917,-1.046,0.0701
1764313282060,0.195,3.3846,7.4847,0.9917,-1.046,0.0701
1764313282070,0.195,3.3846,7.4847,0.6536,-0.7028,0.1407
1764313282080,0.5486,3.4361,7.5697,0.6536,-0.7028,0.1407
1764313282090,0.5486,3.4361,7.5697,0.1935,-0.1917,0.2387
1764313282100,0.9876,3.5749,7.9549,0.1935,-0.1917,0.2387
1764313282110,0.9876,3.5749,7.9549,-0.193,0.2857,0.2702
1764313282120,1.5141,3.7711,7.8497,-0.193,0.2857,0.2702
1764313282130,1.5141,3.7711,7.8497,-0.3551,0.3134,0.1348
1764313282140,1.2048,3.7041,8.3252,-0.3551,0.3134,0.1348
1764313282150,1.2048,3.7041,8.3252,-0.3551,0.3134,0.1348
1764313282160,1.2048,3.7041,8.3252,-0.2448,0.0283,0.02
1764313282170,1.3149,3.4086,9.2381,-0.2448,0.0283,0.02
1764313282180,1.1916,3.4828,9.6778,-0.121,-0.027,0.0002
1764313282190,1.1916,3.4828,9.6778,-0.121,-0.027,0.0002
1764313282200,1.1916,3.4828,9.6778,-0.1691,0.2169,0.0762
1764313282210,0.4708,3.1825,9.5246,-0.1691,0.2169,0.0762
1764313282220,0.4708,3.1825,9.5246,-0.3206,0.4975,0.259
1764313282230,0.1741,3.2698,8.9695,-0.3206,0.4975,0.259
1764313282240,0.1741,3.2698,8.9695,-0.5237,0.438,0.4806
1764313282250,0.804,3.481,9.1484,-0.5237,0.438,0.4806
1764313282260,0.804,3.481,9.1484,-0.6715,0.4157,0.4406
1764313282270,1.4034,3.2399,10.0977,-0.6715,0.4157,0.4406
1764313282280,1.4034,3.2399,10.0977,-0.4743,0.3051,0.248
1764313282290,1.4357,2.9994,10.7486,-0.4743,0.3051,0.248
1764313282300,1.4357,2.9994,10.7486,-0.4743,0.3051,0.248
1764313282310,1.1312,2.9276,10.0899,-0.0316,0.2295,0.0648
1764313282320,1.1312,2.9276,10.0899,-0.0316,0.2295,0.0648
1764313282330,1.1312,2.9276,10.0899,0.246,0.0504,-0.0602
1764313282340,0.3571,2.8295,9.3906,0.246,0.0504,-0.0602
1764313282350,0.3571,2.8295,9.3906,0.2895,-0.0906,-0.0064
1764313282360,-0.1609,2.7613,9.2106,0.2895,-0.0906,-0.0064
1764313282370,-0.1609,2.7613,9.2106,0.2179,-0.0968,0.1695
1764313282380,0.0353,2.9127,9.1376,0.2179,-0.0968,0.1695
1764313282390,0.0353,2.9127,9.1376,0.1547,-0.0463,0.288
1764313282400,0.5186,3.146,9.0323,0.1547,-0.0463,0.288
1764313282410,0.5186,3.146,9.0323,0.1278,0.0173,0.3074
1764313282420,0.8584,3.2812,8.8469,0.1278,0.0173,0.3074
1764313282430,0.8584,3.2812,8.8469,0.0134,0.1093,0.2622
1764313282440,0.786,3.393,8.6728,0.0134,0.1093,0.2622
1764313282450,0.786,3.393,8.6728,0.0134,0.1093,0.2622
1764313282460,0.786,3.393,8.6728,-0.0919,0.1174,0.2114
1764313282470,0.8411,3.3559,8.9827,-0.0919,0.1174,0.2114
1764313282480,0.8411,3.3559,8.9827,-0.1518,0.1188,0.1747
1764313282490,0.7406,3.3326,9.3147,-0.1518,0.1188,0.1747
1764313282500,0.7406,3.3326,9.3147,-0.2028,0.2787,0.1793
1764313282510,0.4893,3.0724,9.734,-0.2028,0.2787,0.1793
1764313282520,0.4893,3.0724,9.734,-0.3196,0.5093,0.2314
1764313282530,0.2327,2.6578,9.9314,-0.3196,0.5093,0.2314
1764313282540,0.2327,2.6578,9.9314,-0.3416,0.6493,0.3154
1764313282550,0.3051,2.6112,10.1868,-0.3416,0.6493,0.3154
1764313282560,0.3051,2.6112,10.1868,-0.1678,0.4942,0.2738
1764313282570,-0.0239,2.4562,10.3687,-0.1678,0.4942,0.2738
1764313282580,-0.0239,2.4562,10.3687,-0.1678,0.4942,0.2738
1764313282590,-0.0239,2.4562,10.3687,0.2272,0.1692,0.2802
1764313282600,0.3194,2.7482,10.386,0.2272,0.1692,0.2802
1764313282610,0.3194,2.7482,10.386,0.5087,0.038,0.2304
1764313282620,0.0,2.9097,9.3799,0.5087,0.038,0.2304
1764313282630,0.0,2.9097,9.3799,0.5107,-0.0576,0.2379
1764313282640,0.0754,3.2028,9.0144,0.5107,-0.0576,0.2379
1764313282650,0.0754,3.2028,9.0144,0.3271,0.0461,0.2868
1764313282660,0.1023,3.2429,9.018,0.3271,0.0461,0.2868
1764313282670,0.1023,3.2429,9.018,0.1258,0.2124,0.3257
1764313282680,-0.1944,3.009,9.1561,0.1258,0.2124,0.3257
1764313282690,-0.1944,3.009,9.1561,0.0535,0.2498,0.4381
1764313282700,-0.2662,2.9462,8.9982,0.0535,0.2498,0.4381
1764313282710,-0.2662,2.9462,8.9982,0.0535,0.2498,0.4381
1764313282720,0.0419,3.0018,8.9127,0.0906,0.0883,0.5336
1764313282730,0.0419,3.0018,8.9127,0.0906,0.0883,0.5336
1764313282740,0.0419,3.0018,8.9127,0.195,-0.1358,0.5487
1764313282750,0.4863,3.1968,8.9791,0.195,-0.1358,0.5487
1764313282760,0.4863,3.1968,8.9791,0.2531,-0.2515,0.4862
1764313282770,0.5186,3.119,9.2249,0.2531,-0.2515,0.4862
1764313282780,0.5186,3.119,9.2249,0.2738,-0.234,0.4606
1764313282790,0.5964,3.0855,9.3159,0.2738,-0.234,0.4606
1764313282800,0.5964,3.0855,9.3159,0.3093,-0.1846,0.4455
1764313282810,0.7543,3.1364,9.3099,0.3093,-0.1846,0.4455
1764313282820,0.7543,3.1364,9.3099,0.4168,-0.2899,0.3826
1764313282830,0.7765,3.2459,9.1466,0.4168,-0.2899,0.3826
1764313282840,0.7765,3.2459,9.1466,0.4168,-0.2899,0.3826
1764313282850,0.7765,3.2459,9.1466,0.7428,-0.7434,0.2986
1764313282860,-1.8156,2.0895,8.9761,0.7428,-0.7434,0.2986
1764313282870,-1.8156,2.0895,8.9761,1.2811,-1.274,0.7701
1764313282880,-1.2042,1.8646,8.6507,1.2811,-1.274,0.7701
1764313282890,-1.2042,1.8646,8.6507,1.4169,-1.5452,1.3184
1764313282900,1.41,2.6734,9.603,1.4169,-1.5452,1.3184
1764313282910,1.41,2.6734,9.603,1.0397,-0.4275,1.5267
1764313282920,3.9511,4.1288,10.4818,1.0397,-0.4275,1.5267
1764313282930,3.9511,4.1288,10.4818,-0.1662,2.3668,1.5391
1764313282940,6.8136,5.6489,12.795,-0.1662,2.3668,1.5391
1764313282950,6.8136,5.6489,12.795,-2.7052,8.2952,1.407
1764313282960,11.1422,7.0098,13.2084,-2.7052,8.2952,1.407
1764313282970,11.1422,7.0098,13.2084,-6.3029,16.5714,0.8767
1764313282980,11.5831,7.4686,7.2156,-6.3029,16.5714,0.8767
1764313282990,11.5831,7.4686,7.2156,-6.3029,16.5714,0.8767
1764313283000,11.5831,7.4686,7.2156,-8.2221,20.496,0.0232
1764313283010,3.7424,5.7703,0.2333,-8.2221,20.496,0.0232
1764313283020,3.7424,5.7703,0.2333,-5.3174,14.7896,-0.7492
1764313283030,-5.6674,5.5178,-7.2179,-5.3174,14.7896,-0.7492
1764313283040,-5.6674,5.5178,-7.2179,0.2248,2.2738,-2.4613
1764313283050,-13.3597,-1.5422,-4.8622,0.2248,2.2738,-2.4613
1764313283060,-13.3597,-1.5422,-4.8622,2.1229,-4.5845,-2.0902
1764313283070,-12.3864,-5.5131,5.007,2.1229,-4.5845,-2.0902
1764313283080,-12.3864,-5.5131,5.007,-0.0548,-2.0259,-0.4142
1764313283090,-8.6477,-2.1212,7.0319,-0.0548,-2.0259,-0.4142
1764313283100,-8.6477,-2.1212,7.0319,-0.0548,-2.0259,-0.4142
1764313283110,-8.8409,-1.1659,5.8708,-1.5942,0.5643,-0.1652
1764313283120,-8.8409,-1.1659,5.8708,-1.5942,0.5643,-0.1652
1764313283130,-10.1025,-2.1936,7.5691,-0.7737,-1.0313,-0.6136
1764313283140,-10.1025,-2.1936,7.5691,-0.7737,-1.0313,-0.6136
1764313283150,-10.1025,-2.1936,7.5691,0.6868,-3.1812,-0.7268
1764313283160,-10.6068,-2.7679,7.4016,0.6868,-3.1812,-0.7268
1764313283170,-10.6068,-2.7679,7.4016,1.5044,-4.7084,-0.4609
1764313283180,-9.4505,-2.0112,6.6221,1.5044,-4.7084,-0.4609
1764313283190,-9.4505,-2.0112,6.6221,2.0875,-6.3386,-0.2601
1764313283200,-6.6485,-1.1659,6.6311,2.0875,-6.3386,-0.2601
1764313283210,-6.6485,-1.1659,6.6311,2.6489,-8.2713,-0.3648
1764313283220,-3.4427,-0.402,8.9587,2.6489,-8.2713,-0.3648
1764313283230,-3.4427,-0.402,8.9587,3.4718,-9.8419,-0.6197
1764313283240,-0.1831,0.1866,14.1003,3.4718,-9.8419,-0.6197
1764313283250,-0.1831,0.1866,14.1003,3.4718,-9.8419,-0.6197
1764313283260,1.2215,0.399,16.3226,4.2712,-9.1779,-0.8349
1764313283270,1.2215,0.399,16.3226,4.2712,-9.1779,-0.8349
1764313283280,1.2215,0.399,16.3226,4.2084,-6.2061,-0.6632
1764313283290,0.8231,1.0816,13.7671,4.2084,-6.2061,-0.6632
1764313283300,0.8231,1.0816,13.7671,2.8785,-2.2348,-0.1129
1764313283310,0.1071,2.0883,8.4449,2.8785,-2.2348,-0.1129
1764313283320,0.1071,2.0883,8.4449,0.8175,0.6799,0.5176
1764313283330,0.8758,3.0353,5.9665,0.8175,0.6799,0.5176
1764313283340,0.8758,3.0353,5.9665,-0.571,1.6887,0.6353
1764313283350,1.1821,3.3248,6.609,-0.571,1.6887,0.6353
1764313283360,1.1821,3.3248,6.609,-0.6332,1.0571,0.3723
1764313283370,0.8279,2.7117,8.1751,-0.6332,1.0571,0.3723
1764313283380,0.8279,2.7117,8.1751,-0.6332,1.0571,0.3723
1764313283390,0.5677,2.1075,9.0939,0.1613,-0.1677,0.1022
1764313283400,0.5677,2.1075,9.0939,0.1613,-0.1677,0.1022
1764313283410,0.5677,2.1075,9.0939,0.7314,-0.7645,0.0273
1764313283420,0.7448,2.0369,8.7876,0.7314,-0.7645,0.0273
1764313283430,0.7448,2.0369,8.7876,0.582,-0.6501,0.1104
1764313283440,0.807,2.3958,8.8229,0.582,-0.6501,0.1104
1764313283450,0.807,2.3958,8.8229,0.1669,-0.244,0.2384
1764313283460,1.1294,2.8648,8.927,0.1669,-0.244,0.2384
1764313283470,1.1294,2.8648,8.927,-0.0728,-0.1142,0.2683
1764313283480,0.8901,3.0927,9.2249,-0.0728,-0.1142,0.2683
1764313283490,0.8901,3.0927,9.2249,0.0021,-0.2013,0.246
1764313283500,0.8596,2.8301,9.2716,0.0021,-0.2013,0.246
1764313283510,0.8596,2.8301,9.2716,0.0021,-0.2013,0.246
1764313283520,2.0136,3.1412,10.0439,0.0698,-0.3772,0.3902
1764313283530,2.0136,3.1412,10.0439,0.0698,-0.3772,0.3902
1764313283540,2.0136,3.1412,10.0439,0.0286,-0.2337,0.3971
1764313283550,2.8008,3.3691,10.2861,0.0286,-0.2337,0.3971
1764313283560,2.8008,3.3691,10.2861,0.0273,0.0686,0.1996
1764313283570,2.7631,3.4732,9.8459,0.0273,0.0686,0.1996
1764313283580,2.7631,3.4732,9.8459,0.1608,-0.0231,-0.0365
1764313283590,2.0387,3.2764,9.3464,0.1608,-0.0231,-0.0365
1764313283600,2.0387,3.2764,9.3464,0.3457,-0.2984,-0.1567
1764313283610,1.4704,3.2148,8.9456,0.3457,-0.2984,-0.1567
1764313283620,1.4704,3.2148,8.9456,0.4146,-0.5145,-0.1205
1764313283630,1.517,3.2225,8.6704,0.4146,-0.5145,-0.1205
1764313283640,1.517,3.2225,8.6704,0.358,-0.4917,-0.0895
1764313283650,1.8843,3.3978,8.6608,0.358,-0.4917,-0.0895
1764313283660,1.8843,3.3978,8.6608,0.358,-0.4917,-0.0895
1764313283670,1.7593,3.2734,8.1547,0.2453,-0.3097,-0.1132
1764313283680,1.7593,3.2734,8.1547,0.2453,-0.3097,-0.1132
1764313283690,1.7593,3.2734,8.1547,0.086,-0.1399,-0.1437
1764313283700,1.2407,3.1095,7.3011,0.086,-0.1399,-0.1437
1764313283710,1.2407,3.1095,7.3011,-0.0964,-0.2306,-0.1164
1764313283720,1.139,3.0981,7.3986,-0.0964,-0.2306,-0.1164
1764313283730,1.139,3.0981,7.3986,-0.2607,-0.4192,-0.1049
1764313283740,1.8126,3.1567,8.391,-0.2607,-0.4192,-0.1049
1764313283750,1.8126,3.1567,8.391,-0.4743,-0.1994,-0.0896
1764313283760,2.7296,3.3176,9.5043,-0.4743,-0.1994,-0.0896
1764313283770,2.7296,3.3176,9.5043,-0.4743,-0.1994,-0.0896
1764313283780,2.6273,2.9414,10.8604,-0.7301,0.2083,-0.2008
1764313283790,2.6273,2.9414,10.8604,-0.7301,0.2083,-0.2008
1764313283800,2.6273,2.9414,10.8604,-0.6255,0.4554,-0.2908
1764313283810,1.7641,2.4969,11.1565,-0.6255,0.4554,-0.2908
1764313283820,1.7641,2.4969,11.1565,-0.144,0.1915,-0.2569
1764313283830,1.4375,2.677,10.3244,-0.144,0.1915,-0.2569
1764313283840,1.4375,2.677,10.3244,0.301,-0.285,-0.2605
1764313283850,1.6905,2.9994,9.484,0.301,-0.285,-0.2605
1764313283860,1.6905,2.9994,9.484,0.4041,-0.5003,-0.2967
1764313283870,1.9448,3.0658,9.0197,0.4041,-0.5003,-0.2967
1764313283880,1.9448,3.0658,9.0197,0.2017,-0.317,-0.3152
1764313283890,2.2193,3.143,8.9282,0.2017,-0.317,-0.3152
1764313283900,2.2193,3.143,8.9282,-0.0464,-0.0302,-0.3648
1764313283910,1.9813,3.0449,9.1771,-0.0464,-0.0302,-0.3648
1764313283920,1.9813,3.0449,9.1771,-0.0464,-0.0302,-0.3648
1764313283930,1.5793,2.8008,9.4947,-0.1604,0.1269,-0.3922
1764313283940,1.5793,2.8008,9.4947,-0.1604,0.1269,-0.3922
1764313283950,1.5793,2.8008,9.4947,-0.0396,0.0006,-0.3668
1764313283960,1.5045,2.8792,9.4851,-0.0396,0.0006,-0.3668
1764313283970,1.5045,2.8792,9.4851,0.1523,-0.2355,-0.36
1764313283980,1.7025,3.0706,9.1537,0.1523,-0.2355,-0.36
1764313283990,1.7025,3.0706,9.1537,0.1759,-0.3325,-0.3819
1764313284000,1.9968,3.1567,9.0975,0.1759,-0.3325,-0.3819
1764313284010,1.9968,3.1567,9.0975,0.0738,-0.2373,-0.4213
1764313284020,2.1888,3.2512,9.3045,0.0738,-0.2373,-0.4213
1764313284030,2.1888,3.2512,9.3045,-0.0247,-0.0967,-0.4702
1764313284040,2.138,3.1729,9.4104,-0.0247,-0.0967,-0.4702
1764313284050,2.138,3.1729,9.4104,-0.0247,-0.0967,-0.4702
1764313284060,2.138,3.1729,9.4104,0.0252,-0.142,-0.5208
1764313284070,1.8054,3.0808,9.4582,0.0252,-0.142,-0.5208
1764313284080,1.8054,3.0808,9.4582,0.206,-0.3961,-0.5664
1764313284090,1.6816,2.985,9.4164,0.206,-0.3961,-0.5664
1764313284100,1.6816,2.985,9.4164,0.3667,-0.5756,-0.5615
1764313284110,1.8873,3.0712,9.1107,0.3667,-0.5756,-0.5615
1764313284120,1.8873,3.0712,9.1107,0.3792,-0.6889,-0.5722
1764313284130,2.1823,3.3176,8.991,0.3792,-0.6889,-0.5722
1764313284140,2.1823,3.3176,8.991,0.453,-0.9445,-0.6918
1764313284150,1.9777,3.4092,8.8421,0.453,-0.9445,-0.6918
1764313284160,1.9777,3.4092,8.8421,0.655,-1.3778,-0.8413
1764313284170,1.9777,3.4092,8.8421,0.655,-1.3778,-0.8413
1764313284180,1.5446,3.277,8.1727,0.883,-2.3065,-0.8262
1764313284190,1.7581,3.1807,8.9049,0.883,-2.3065,-0.8262
1764313284200,1.7581,3.1807,8.9049,0.883,-2.3065,-0.8262
1764313284210,1.7581,3.1807,8.9049,1.326,-3.1004,-0.7619
1764313284220,2.1308,3.4313,9.795,1.326,-3.1004,-0.7619
1764313284230,2.1308,3.4313,9.795,1.7341,-3.2281,-0.6307
1764313284240,2.8439,4.0104,9.3129,1.7341,-3.2281,-0.6307
1764313284250,2.8439,4.0104,9.3129,1.6507,-2.5313,-0.4574
1764313284260,3.4726,4.5511,8.8056,1.6507,-2.5313,-0.4574
1764313284270,3.4726,4.5511,8.8056,0.8207,-0.5525,-0.1095
1764313284280,4.6134,5.2564,9.0174,0.8207,-0.5525,-0.1095
1764313284290,4.6134,5.2564,9.0174,-1.0803,3.7521,0.3581
1764313284300,6.2279,6.1609,7.483,-1.0803,3.7521,0.3581
1764313284310,6.2279,6.1609,7.483,-1.0803,3.7521,0.3581
1764313284320,8.0722,7.4973,6.1878,-4.2612,9.6982,0.6019
1764313284330,8.0722,7.4973,6.1878,-4.2612,9.6982,0.6019
1764313284340,8.0722,7.4973,6.1878,-7.5022,15.4405,0.3039
1764313284350,7.4943,7.4608,4.2574,-7.5022,15.4405,0.3039
1764313284360,7.4943,7.4608,4.2574,-8.6156,17.8557,-0.7188
1764313284370,0.9733,3.466,1.6463,-8.6156,17.8557,-0.7188
1764313284380,0.9733,3.466,1.6463,-5.9575,13.5479,-1.4603
1764313284390,-8.0124,-0.6987,-0.8961,-5.9575,13.5479,-1.4603
1764313284400,-8.0124,-0.6987,-0.8961,-1.1338,4.1395,-1.9137
1764313284410,-12.1555,-2.5747,-0.8919,-1.1338,4.1395,-1.9137
1764313284420,-12.1555,-2.5747,-0.8919,1.7527,-3.3934,-1.9421
1764313284430,-10.5715,-4.7378,5.6913,1.7527,-3.3934,-1.9421
1764313284440,-10.5715,-4.7378,5.6913,1.3404,-3.8559,-1.128
1764313284450,-7.6917,-3.4427,10.1085,1.3404,-3.8559,-1.128
1764313284460,-7.6917,-3.4427,10.1085,1.3404,-3.8559,-1.128
1764313284470,-7.4046,-2.4054,10.6588,-0.4336,-0.734,-0.7414
1764313284480,-7.4046,-2.4054,10.6588,-0.4336,-0.734,-0.7414
1764313284490,-7.4046,-2.4054,10.6588,-0.9166,0.644,-0.7414
1764313284500,-8.5663,-2.0375,10.1791,-0.9166,0.644,-0.7414
1764313284510,-8.5663,-2.0375,10.1791,0.2567,-0.6584,-0.7969
1764313284520,-8.4945,-1.8508,9.0174,0.2567,-0.6584,-0.7969
1764313284530,-8.4945,-1.8508,9.0174,1.5182,-2.5305,-0.8296
1764313284540,-7.8006,-1.9747,7.9382,1.5182,-2.5305,-0.8296
1764313284550,-7.8006,-1.9747,7.9382,2.0359,-3.8474,-0.7582
1764313284560,-6.4738,-1.7575,8.1835,2.0359,-3.8474,-0.7582
1764313284570,-6.4738,-1.7575,8.1835,2.2391,-4.7431,-0.7453
1764313284580,-5.4401,-1.6271,9.53,2.2391,-4.7431,-0.7453
1764313284590,-5.4401,-1.6271,9.53,2.7464,-5.6514,-0.711
1764313284600,-3.8411,-1.1372,10.9244,2.7464,-5.6514,-0.711
1764313284610,-3.8411,-1.1372,10.9244,2.7464,-5.6514,-0.711
1764313284620,-3.8411,-1.1372,10.9244,3.2959,-5.9969,-0.684
1764313284630,-1.6098,0.2183,11.321,3.2959,-5.9969,-0.684
1764313284640,-1.6098,0.2183,11.321,3.1657,-5.2753,-0.7891
1764313284650,-1.2586,0.8076,11.2271,3.1657,-5.2753,-0.7891
1764313284660,-1.2586,0.8076,11.2271,2.5346,-3.7105,-0.6466
1764313284670,-1.4788,1.0433,10.3448,2.5346,-3.7105,-0.6466
1764313284680,-1.4788,1.0433,10.3448,1.5711,-1.7778,-0.2338
1764313284690,-0.5408,1.6714,8.927,1.5711,-1.7778,-0.2338
1764313284700,-0.5408,1.6714,8.927,0.4772,-0.1182,0.0151
1764313284710,0.1424,2.08,8.2205,0.4772,-0.1182,0.0151
1764313284720,0.1424,2.08,8.2205,0.0185,0.285,-0.0147
1764313284730,0.0335,2.3575,8.3402,0.0185,0.285,-0.0147
1764313284740,0.0335,2.3575,8.3402,0.0185,0.285,-0.0147
1764313284750,-0.3817,2.1613,8.1613,0.2879,-0.2405,-0.2094
1764313284760,-0.3817,2.1613,8.1613,0.2879,-0.2405,-0.2094
1764313284770,-0.3817,2.1613,8.1613,0.6202,-0.9337,-0.2815
1764313284780,-0.4977,2.053,8.5771,0.6202,-0.9337,-0.2815
1764313284790,-0.4977,2.053,8.5771,0.6048,-0.9624,-0.1791
1764313284800,-0.2219,2.1045,9.1741,0.6048,-0.9624,-0.1791
1764313284810,-0.2219,2.1045,9.1741,0.3213,-0.3468,-0.0231
1764313284820,0.2411,2.3527,9.0239,0.3213,-0.3468,-0.0231
1764313284830,0.2411,2.3527,9.0239,-0.1074,0.2934,0.0696
1764313284840,0.7513,2.6913,8.9013,-0.1074,0.2934,0.0696
1764313284850,0.7513,2.6913,8.9013,-0.3619,0.4754,-0.0374
1764313284860,0.3781,2.6542,9.7831,-0.3619,0.4754,-0.0374
1764313284870,0.3781,2.6542,9.7831,-0.3619,0.4754,-0.0374
1764313284880,-1.0433,1.413,9.932,-0.1901,0.3879,-0.1408
1764313284890,-1.0433,1.413,9.932,-0.1901,0.3879,-0.1408
1764313284900,-1.0433,1.413,9.932,0.1381,0.2083,0.088
1764313284910,-0.9272,2.0351,8.884,0.1381,0.2083,0.088
1764313284920,-0.9272,2.0351,8.884,0.0344,-0.2637,0.3722
1764313284930,0.4469,2.2941,9.9553,0.0344,-0.2637,0.3722
1764313284940,0.4469,2.2941,9.9553,-0.0585,-0.1216,0.3474
1764313284950,1.2568,2.4616,10.8383,-0.0585,-0.1216,0.3474
1764313284960,1.2568,2.4616,10.8383,0.0024,0.1139,0.1657
1764313284970,1.2359,2.4933,10.8933,0.0024,0.1139,0.1657
1764313284980,1.2359,2.4933,10.8933,0.1449,0.2799,-0.0008
1764313284990,0.3619,2.391,10.1468,0.1449,0.2799,-0.0008
1764313285000,0.3619,2.391,10.1468,0.1449,0.2799,-0.0008
1764313285010,0.3619,2.391,10.1468,0.2663,0.1558,-0.0426
1764313285020,-0.4845,2.2032,9.3212,0.2663,0.1558,-0.0426
1764313285030,-0.4845,2.2032,9.3212,0.3723,-0.221,0.0441
1764313285040,-0.207,2.3318,9.5025,0.3723,-0.221,0.0441
1764313285050,-0.207,2.3318,9.5025,0.4122,-0.3198,0.1211
1764313285060,0.2381,2.3844,9.798,0.4122,-0.3198,0.1211
1764313285070,0.2381,2.3844,9.798,0.369,0.0035,0.1614
1764313285080,0.1262,2.4407,9.2016,0.369,0.0035,0.1614
1764313285090,0.1262,2.4407,9.2016,0.2378,0.223,0.2199
1764313285100,0.0778,2.6572,8.5603,0.2378,0.223,0.2199
1764313285110,0.0778,2.6572,8.5603,0.1187,0.1578,0.2123
1764313285120,0.1639,2.9276,8.6656,0.1187,0.1578,0.2123
1764313285130,0.1639,2.9276,8.6656,0.0791,-0.0382,0.1312
1764313285140,-0.0365,2.589,9.0036,0.0791,-0.0382,0.1312
1764313285150,-0.0365,2.589,9.0036,0.0791,-0.0382,0.1312
1764313285160,-0.0365,2.589,9.0036,0.0985,-0.2184,0.1205
1764313285170,0.1472,2.5783,9.4768,0.0985,-0.2184,0.1205
1764313285180,0.1472,2.5783,9.4768,0.1742,-0.3154,0.1063
1764313285190,0.1304,2.5777,9.4433,0.1742,-0.3154,0.1063
1764313285200,0.1304,2.5777,9.4433,0.1498,-0.1993,0.1226
1764313285210,0.4229,2.6608,9.2716,0.1498,-0.1993,0.1226
1764313285220,0.4229,2.6608,9.2716,-0.0064,-0.0365,0.1287
1764313285230,0.2566,2.5765,9.6162,-0.0064,-0.0365,0.1287
1764313285240,0.2566,2.5765,9.6162,-0.0611,0.0629,0.151
1764313285250,0.0945,2.2971,10.2939,-0.0611,0.0629,0.151
1764313285260,0.0945,2.2971,10.2939,-0.0611,0.0629,0.151
1764313285270,0.0144,2.3174,10.2377,0.1576,-0.1142,0.2111
1764313285280,0.0144,2.3174,10.2377,0.1576,-0.1142,0.2111
1764313285290,0.3571,2.6381,9.7932,0.4097,-0.2689,0.2695
1764313285300,0.3571,2.6381,9.7932,0.4097,-0.2689,0.2695
1764313285310,0.3571,2.6381,9.7932,0.4305,-0.3015,0.2941
1764313285320,0.4247,2.9174,9.4708,0.4305,-0.3015,0.2941
1764313285330,0.4247,2.9174,9.4708,0.2708,-0.0246,0.3502
1764313285340,0.6574,3.0341,9.271,0.2708,-0.0246,0.3502
1764313285350,0.6574,3.0341,9.271,0.0254,0.2544,0.3929
1764313285360,0.8154,3.0646,9.4295,0.0254,0.2544,0.3929
1764313285370,0.8154,3.0646,9.4295,0.0009,0.2543,0.367
1764313285380,0.8584,2.9988,9.5139,0.0009,0.2543,0.367
1764313285390,0.8584,2.9988,9.5139,0.1944,-0.062,0.2839
1764313285400,0.8841,3.0784,9.5043,0.1944,-0.062,0.2839
1764313285410,0.8841,3.0784,9.5043,0.1944,-0.062,0.2839
1764313285420,0.8841,3.0784,9.5043,0.4383,-0.4168,0.1605
1764313285430,0.807,2.9468,9.6574,0.4383,-0.4168,0.1605
1764313285440,0.807,2.9468,9.6574,0.5473,-0.4407,0.1373
1764313285450,0.7831,2.9797,9.417,0.5473,-0.4407,0.1373
1764313285460,0.7831,2.9797,9.417,0.4736,-0.3381,0.1877
1764313285470,-0.0108,2.991,9.2662,0.4736,-0.3381,0.1877
1764313285480,-0.0108,2.991,9.2662,0.5615,-0.4621,0.3328
1764313285490,0.5013,3.1603,8.9862,0.5615,-0.4621,0.3328
1764313285500,0.5013,3.1603,8.9862,0.7139,-0.6997,0.4044
1764313285510,1.7001,3.8267,8.4132,0.7139,-0.6997,0.4044
1764313285520,1.7001,3.8267,8.4132,0.7811,-1.0724,0.1877
1764313285530,2.0112,3.7986,9.402,0.7811,-1.0724,0.1877
1764313285540,2.0112,3.7986,9.402,0.7811,-1.0724,0.1877
1764313285550,1.9651,3.6861,9.8788,0.969,-1.1483,0.0643
1764313285560,1.9651,3.6861,9.8788,0.969,-1.1483,0.0643
1764313285570,1.9651,3.6861,9.8788,1.0886,-0.9186,0.057
1764313285580,1.614,3.8991,9.1466,1.0886,-0.9186,0.057
1764313285590,1.614,3.8991,9.1466,1.0255,-0.6387,0.1972
1764313285600,1.6319,4.1061,8.1751,1.0255,-0.6387,0.1972
1764313285610,1.6319,4.1061,8.1751,0.7051,-0.2978,0.3821
1764313285620,1.9968,4.3292,7.7623,0.7051,-0.2978,0.3821
1764313285630,1.9968,4.3292,7.7623,0.3112,0.0805,0.4635
1764313285640,2.4377,4.4584,7.9777,0.3112,0.0805,0.4635
1764313285650,2.4377,4.4584,7.9777,0.0197,0.5484,0.4369
1764313285660,2.5507,4.4207,8.3862,0.0197,0.5484,0.4369
1764313285670,2.5507,4.4207,8.3862,0.0197,0.5484,0.4369
1764313285680,2.8487,4.5159,9.2219,-0.3832,1.5094,0.4598
1764313285690,2.8487,4.5159,9.2219,-0.3832,1.5094,0.4598
1764313285700,2.8487,4.5159,9.2219,-1.4647,4.082,0.6529
1764313285710,5.0836,5.2738,10.252,-1.4647,4.082,0.6529
1764313285720,5.0836,5.2738,10.252,-3.866,9.467,0.7344
1764313285730,6.3613,6.3763,7.3543,-3.866,9.467,0.7344
1764313285740,6.3613,6.3763,7.3543,-7.0376,15.1985,0.3881
1764313285750,3.926,5.5382,5.2116,-7.0376,15.1985,0.3881
1764313285760,3.926,5.5382,5.2116,-8.3721,17.2444,-0.1539
1764313285770,-1.8748,3.1011,1.7725,-8.3721,17.2444,-0.1539
1764313285780,-1.8748,3.1011,1.7725,-5.7656,12.118,-0.9452
1764313285790,-10.5589,0.1352,-2.1966,-5.7656,12.118,-0.9452
1764313285800,-10.5589,0.1352,-2.1966,-0.2149,1.2239,-1.8422
1764313285810,-15.4223,-4.2221,1.0002,-0.2149,1.2239,-1.8422
1764313285820,-15.4223,-4.2221,1.0002,-0.2149,1.2239,-1.8422
1764313285830,-12.5545,-6.0078,6.9697,2.496,-4.5858,-1.0653
1764313285840,-12.5545,-6.0078,6.9697,2.496,-4.5858,-1.0653
1764313285850,-12.5545,-6.0078,6.9697,1.2083,-2.6672,0.4308
1764313285860,-7.6014,-1.7898,6.1771,1.2083,-2.6672,0.4308
1764313285870,-7.6014,-1.7898,6.1771,-0.8645,0.0475,0.4659
1764313285880,-7.8168,-0.3446,5.251,-0.8645,0.0475,0.4659
1764313285890,-7.8168,-0.3446,5.251,-1.2515,-0.159,-0.0102
1764313285900,-10.0056,-1.2604,6.1621,-1.2515,-0.159,-0.0102
1764313285910,-10.0056,-1.2604,6.1621,-0.1324,-2.2385,-0.1025
1764313285920,-10.3627,-2.083,5.8989,-0.1324,-2.2385,-0.1025
1764313285930,-10.3627,-2.083,5.8989,1.1212,-4.7817,0.1165
1764313285940,-8.3653,-2.123,6.454,1.1212,-4.7817,0.1165
1764313285950,-8.3653,-2.123,6.454,1.1212,-4.7817,0.1165
1764313285960,-8.3653,-2.123,6.454,2.2155,-7.1245,0.246
1764313285970,-5.3342,-1.3083,9.2381,2.2155,-7.1245,0.246
1764313285980,-5.3342,-1.3083,9.2381,3.1623,-8.1483,0.1874
1764313285990,-2.7404,-0.5276,12.0036,3.1623,-8.1483,0.1874
1764313286000,-2.7404,-0.5276,12.0036,3.5615,-7.3838,0.1996
1764313286010,-1.5458,0.2267,12.1998,3.5615,-7.3838,0.1996
1764313286020,-1.5458,0.2267,12.1998,3.1357,-5.4394,0.3479
1764313286030,-0.6987,0.9541,11.0608,3.1357,-5.4394,0.3479
1764313286040,-0.6987,0.9541,11.0608,2.3344,-3.4578,0.5869
1764313286050,0.731,2.0435,10.7055,2.3344,-3.4578,0.5869
1764313286060,0.731,2.0435,10.7055,1.5927,-1.5041,0.6507
1764313286070,1.1037,2.6692,8.9318,1.5927,-1.5041,0.6507
1764313286080,1.1037,2.6692,8.9318,1.5927,-1.5041,0.6507
1764313286090,0.7143,2.8175,7.1557,0.9407,-0.3337,0.5991
1764313286100,0.7143,2.8175,7.1557,0.9407,-0.3337,0.5991
1764313286110,0.7143,2.8175,7.1557,0.4989,-0.2384,0.5011
1764313286120,0.542,2.8349,7.1898,0.4989,-0.2384,0.5011
1764313286130,0.542,2.8349,7.1898,0.4814,-0.6872,0.4163
1764313286140,0.9811,2.8839,8.1147,0.4814,-0.6872,0.4163
1764313286150,0.9811,2.8839,8.1147,0.5617,-0.8983,0.3702
1764313286160,1.7545,3.1077,8.7595,0.5617,-0.8983,0.3702
1764313286170,1.7545,3.1077,8.7595,0.3894,-0.5194,0.3141
1764313286180,2.0399,3.192,8.8247,0.3894,-0.5194,0.3141
1764313286190,2.0399,3.192,8.8247,-0.0023,0.111,0.2787
1764313286200,1.6337,3.4822,8.4383,-0.0023,0.111,0.2787
1764313286210,1.6337,3.4822,8.4383,-0.2943,0.3835,0.2292
1764313286220,1.6337,3.4822,8.4383,-0.2943,0.3835,0.2292
1764313286230,1.0499,3.0646,8.6812,-0.2943,0.3835,0.2292
1764313286240,1.0499,3.0646,8.6812,-0.2969,0.172,0.2708
1764313286250,0.9751,3.4152,9.1424,-0.2969,0.172,0.2708
1764313286260,0.9751,3.4152,9.1424,-0.1193,-0.4649,0.3257
1764313286270,1.6241,3.0197,10.2191,-0.1193,-0.4649,0.3257
1764313286280,1.6241,3.0197,10.2191,0.2001,-0.546,0.2359
1764313286290,1.8915,3.1651,10.1456,0.2001,-0.546,0.2359
1764313286300,1.8915,3.1651,10.1456,0.297,-0.3777,0.1368
1764313286310,2.3246,3.1597,10.0786,0.297,-0.3777,0.1368
1764313286320,2.3246,3.1597,10.0786,0.2453,-0.0857,-0.0081
1764313286330,1.8724,3.2303,9.6174,0.2453,-0.0857,-0.0081
1764313286340,1.8724,3.2303,9.6174,0.1938,0.0898,-0.1055
1764313286350,1.0881,3.1394,8.9886,0.1938,0.0898,-0.1055
1764313286360,1.0881,3.1394,8.9886,0.1938,0.0898,-0.1055
1764313286370,1.0881,3.1394,8.9886,0.1694,-0.0026,-0.1061
1764313286380,0.7645,3.058,8.9121,0.1694,-0.0026,-0.1061
1764313286390,0.7645,3.058,8.9121,0.2152,-0.1023,-0.0481
1764313286400,0.5982,3.1077,8.3157,0.2152,-0.1023,-0.0481
1764313286410,0.5982,3.1077,8.3157,0.1608,-0.2017,0.0354
1764313286420,0.7573,3.3374,7.8233,0.1608,-0.2017,0.0354
1764313286430,0.7573,3.3374,7.8233,-0.1283,-0.2062,0.0953
1764313286440,1.7623,3.6168,8.7589,-0.1283,-0.2062,0.0953
1764313286450,1.7623,3.6168,8.7589,-0.4426,-0.0715,-0.0191
1764313286460,2.409,3.1729,10.8455,-0.4426,-0.0715,-0.0191
1764313286470,2.409,3.1729,10.8455,-0.3054,0.3415,-0.1727
1764313286480,1.5075,2.7882,10.9095,-0.3054,0.3415,-0.1727
1764313286490,1.5075,2.7882,10.9095,-0.3054,0.3415,-0.1727
1764313286500,0.8315,2.9288,10.1492,0.0591,0.2941,-0.21
1764313286510,0.8315,2.9288,10.1492,0.0591,0.2941,-0.21
1764313286520,0.8315,2.9288,10.1492,0.3438,-0.0451,-0.1994
1764313286530,0.6365,2.8792,9.5109,0.3438,-0.0451,-0.1994
1764313286540,0.6365,2.8792,9.5109,0.4522,-0.3509,-0.1494
1764313286550,0.5773,2.921,9.5731,0.4522,-0.3509,-0.1494
1764313286560,0.5773,2.921,9.5731,0.5246,-0.5753,-0.0753
1764313286570,0.8692,2.9593,9.7484,0.5246,-0.5753,-0.0753
1764313286580,0.8692,2.9593,9.7484,0.5522,-0.495,-0.0125
1764313286590,1.3244,3.2339,9.7926,0.5522,-0.495,-0.0125
1764313286600,1.3244,3.2339,9.7926,0.4253,-0.1084,-0.0096
1764313286610,1.6798,3.457,9.3482,0.4253,-0.1084,-0.0096
1764313286620,1.6798,3.457,9.3482,0.4253,-0.1084,-0.0096
1764313286630,1.6971,3.5797,9.2124,0.1991,0.1443,-0.0493
1764313286640,1.6971,3.5797,9.2124,0.1991,0.1443,-0.0493
1764313286650,1.6971,3.5797,9.2124,0.2561,-0.1208,-0.131
1764313286660,1.3484,3.5641,9.4146,0.2561,-0.1208,-0.131
1764313286670,1.3484,3.5641,9.4146,0.6162,-0.6014,-0.1953
1764313286680,1.2461,3.533,9.2572,0.6162,-0.6014,-0.1953
1764313286690,1.2461,3.533,9.2572,0.8263,-0.8305,-0.1772
1764313286700,1.5392,3.7376,8.8499,0.8263,-0.8305,-0.1772
1764313286710,1.5392,3.7376,8.8499,0.7477,-0.7248,-0.1232
1764313286720,2.144,4.0325,8.6967,0.7477,-0.7248,-0.1232
1764313286730,2.144,4.0325,8.6967,0.567,-0.4047,-0.1575
1764313286740,2.2331,4.2718,8.3575,0.567,-0.4047,-0.1575
1764313286750,2.2331,4.2718,8.3575,0.3894,-0.1431,-0.2304
1764313286760,1.855,4.4381,7.8353,0.3894,-0.1431,-0.2304
1764313286770,1.855,4.4381,7.8353,0.3894,-0.1431,-0.2304
1764313286780,1.855,4.4381,7.8353,0.2023,-0.0657,-0.2324
1764313286790,1.7169,4.5272,7.5805,0.2023,-0.0657,-0.2324
1764313286800,1.7169,4.5272,7.5805,-0.013,0.0038,-0.2153
1764313286810,1.788,4.5338,7.8628,-0.013,0.0038,-0.2153
1764313286820,1.788,4.5338,7.8628,-0.1674,0.0828,-0.2472
1764313286830,1.8646,4.3167,8.3252,-0.1674,0.0828,-0.2472
1764313286840,1.8646,4.3167,8.3252,-0.1498,0.0803,-0.303
1764313286850,1.7898,4.1695,8.4371,-0.1498,0.0803,-0.303
1764313286860,1.7898,4.1695,8.4371,-0.0961,0.0356,-0.3445
1764313286870,1.6714,4.1557,8.3737,-0.0961,0.0356,-0.3445
1764313286880,1.6714,4.1557,8.3737,-0.0948,-0.0405,-0.3578
1764313286890,1.876,4.2736,8.8869,-0.0948,-0.0405,-0.3578
1764313286900,1.876,4.2736,8.8869,-0.0948,-0.0405,-0.3578
1764313286910,1.7611,4.2179,9.1519,-0.0619,-0.0446,-0.4255
1764313286920,1.7611,4.2179,9.1519,-0.0619,-0.0446,-0.4255
1764313286930,1.7611,4.2179,9.1519,0.0356,-0.0756,-0.4814
1764313286940,1.4967,4.0313,9.1549,0.0356,-0.0756,-0.4814
1764313286950,1.4967,4.0313,9.1549,0.1248,-0.0487,-0.4704
1764313286960,1.6684,4.2562,8.8905,0.1248,-0.0487,-0.4704
1764313286970,1.6684,4.2562,8.8905,0.0814,0.0287,-0.5217
1764313286980,1.4435,4.2269,8.9204,0.0814,0.0287,-0.5217
1764313286990,1.4435,4.2269,8.9204,0.1153,0.0617,-0.5941
1764313287000,0.3224,3.7107,9.3799,0.1153,0.0617,-0.5941
1764313287010,0.3224,3.7107,9.3799,0.3306,0.0857,-0.3656
1764313287020,1.0588,3.9655,8.9761,0.3306,0.0857,-0.3656
1764313287030,1.0588,3.9655,8.9761,0.3306,0.0857,-0.3656
1764313287040,1.1354,4.1079,9.6927,0.3076,-0.071,-0.2564
1764313287050,1.1354,4.1079,9.6927,0.3076,-0.071,-0.2564
1764313287060,1.1354,4.1079,9.6927,0.3966,0.0124,-0.182
1764313287070,1.2425,4.459,9.1633,0.3966,0.0124,-0.182
1764313287080,1.2425,4.459,9.1633,0.4586,-0.265,-0.1698
1764313287090,1.6475,4.8497,9.0437,0.4586,-0.265,-0.1698
1764313287100,1.6475,4.8497,9.0437,0.617,-0.6484,-0.2964
1764313287110,1.4722,4.8652,9.201,0.617,-0.6484,-0.2964
1764313287120,1.4722,4.8652,9.201,0.7526,-0.8346,-0.3729
1764313287130,1.0959,4.5607,9.2183,0.7526,-0.8346,-0.3729
1764313287140,1.0959,4.5607,9.2183,0.9114,-0.9646,-0.3187
1764313287150,0.9972,4.7091,8.4598,0.9114,-0.9646,-0.3187
1764313287160,0.9972,4.7091,8.4598,0.9114,-0.9646,-0.3187
1764313287170,0.9972,4.7091,8.4598,1.0056,-1.1396,-0.2618
1764313287180,1.0834,4.9101,8.12,1.0056,-1.1396,-0.2618
1764313287190,1.0834,4.9101,8.12,0.9971,-1.1261,-0.2146
1764313287200,1.2939,5.2175,7.59,0.9971,-1.1261,-0.2146
1764313287210,1.2939,5.2175,7.59,0.7714,-0.7781,-0.1539
1764313287220,1.7862,5.5208,7.2084,0.7714,-0.7781,-0.1539
1764313287230,1.7862,5.5208,7.2084,0.2734,0.1463,-0.0965
1764313287240,3.2841,6.1513,7.7145,0.2734,0.1463,-0.0965
1764313287250,3.2841,6.1513,7.7145,-0.867,2.8057,-0.1165
1764313287260,6.4385,7.8036,7.7013,-0.867,2.8057,-0.1165
1764313287270,6.4385,7.8036,7.7013,-3.2286,7.7581,-0.5276
1764313287280,9.5916,10.1533,6.0174,-3.2286,7.7581,-0.5276
1764313287290,9.5916,10.1533,6.0174,-6.2272,13.7545,-1.5857
1764313287300,9.5916,10.1533,6.0174,-6.2272,13.7545,-1.5857
1764313287310,8.8564,9.1107,1.3131,-6.2272,13.7545,-1.5857
1764313287320,8.8564,9.1107,1.3131,-7.523,16.373,-3.1104
1764313287330,-0.1023,3.7071,-3.1669,-7.523,16.373,-3.1104
1764313287340,-0.1023,3.7071,-3.1669,-5.1128,11.4038,-3.751
1764313287350,-11.9468,-2.4532,-4.2622,-5.1128,11.4038,-3.751
1764313287360,-11.9468,-2.4532,-4.2622,-0.6926,1.7929,-3.3162
1764313287370,-16.2233,-6.1017,2.1787,-0.6926,1.7929,-3.3162
1764313287380,-16.2233,-6.1017,2.1787,2.053,-3.9624,-1.9135
1764313287390,-12.0915,-5.3886,9.1561,2.053,-3.9624,-1.9135
1764313287400,-12.0915,-5.3886,9.1561,1.7378,-2.9166,-0.5464
1764313287410,-7.4764,-1.3669,8.4054,1.7378,-2.9166,-0.5464
1764313287420,-7.4764,-1.3669,8.4054,-0.1491,-0.1428,-0.4181
1764313287430,-7.5841,0.1645,7.2012,-0.1491,-0.1428,-0.4181
1764313287440,-7.5841,0.1645,7.2012,-0.1491,-0.1428,-0.4181
1764313287450,-9.8812,-0.6066,7.7557,-1.0087,0.547,-0.6723
1764313287460,-9.8812,-0.6066,7.7557,-1.0087,0.547,-0.6723
1764313287470,-9.8812,-0.6066,7.7557,-0.276,-0.7089,-0.6439
1764313287480,-10.873,-1.2873,7.7468,-0.276,-0.7089,-0.6439
1764313287490,-10.873,-1.2873,7.7468,0.8499,-2.3048,-0.3322
1764313287500,-10.0678,-1.7306,6.1436,0.8499,-2.3048,-0.3322
1764313287510,-10.0678,-1.7306,6.1436,1.4858,-4.0572,0.0197
1764313287520,-7.3537,-0.932,6.2578,1.4858,-4.0572,0.0197
1764313287530,-7.3537,-0.932,6.2578,2.1999,-6.1004,-0.0232
1764313287540,-4.2724,0.3846,8.4867,2.1999,-6.1004,-0.0232
1764313287550,-4.2724,0.3846,8.4867,3.1224,-7.5176,-0.4166
1764313287560,-2.659,0.92,10.7091,3.1224,-7.5176,-0.4166
1764313287570,-2.659,0.92,10.7091,3.1224,-7.5176,-0.4166
1764313287580,-2.0082,1.1438,11.7715,3.6982,-7.7171,-0.67
1764313287590,-2.0082,1.1438,11.7715,3.6982,-7.7171,-0.67
1764313287600,-2.0082,1.1438,11.7715,3.7988,-6.7902,-0.5489
1764313287610,-1.4201,1.8491,11.5418,3.7988,-6.7902,-0.5489
1764313287620,-1.4201,1.8491,11.5418,3.2212,-4.7376,-0.1429
1764313287630,0.0604,2.9157,10.2174,3.2212,-4.7376,-0.1429
1764313287640,0.0604,2.9157,10.2174,1.8596,-1.9765,0.1952
1764313287650,0.9129,3.868,8.5388,1.8596,-1.9765,0.1952
1764313287660,0.9129,3.868,8.5388,0.4957,0.0626,0.3374
1764313287670,1.011,4.1665,7.4453,0.4957,0.0626,0.3374
1764313287680,1.011,4.1665,7.4453,-0.142,0.6017,0.2598
1764313287690,0.6126,4.261,6.9547,-0.142,0.6017,0.2598
1764313287700,0.6126,4.261,6.9547,-0.055,-0.0754,0.0554
1764313287710,0.609,3.9781,7.861,-0.055,-0.0754,0.0554
1764313287720,0.609,3.9781,7.861,-0.055,-0.0754,0.0554
1764313287730,0.609,3.9781,7.861,0.3051,-0.6767,-0.0713
1764313287740,0.7196,3.6449,8.5777,0.3051,-0.6767,-0.0713
1764313287750,0.7196,3.6449,8.5777,0.4296,-0.5055,-0.0932
1764313287760,-0.0323,2.7996,8.3252,0.4296,-0.5055,-0.0932
1764313287770,-0.0323,2.7996,8.3252,0.3088,-0.0052,0.1214
1764313287780,-0.1831,3.7119,7.319,0.3088,-0.0052,0.1214
1764313287790,-0.1831,3.7119,7.319,-0.1031,-0.0951,0.52
1764313287800,0.8674,3.9494,8.013,-0.1031,-0.0951,0.52
1764313287810,0.8674,3.9494,8.013,-0.4178,-0.106,0.573
1764313287820,2.1021,3.9517,9.5139,-0.4178,-0.106,0.573
1764313287830,2.1021,3.9517,9.5139,-0.3763,-0.0748,0.3319
1764313287840,2.2839,4.1378,10.6301,-0.3763,-0.0748,0.3319
1764313287850,2.2839,4.1378,10.6301,-0.3763,-0.0748,0.3319
1764313287860,1.6816,3.7107,10.6828,-0.0866,-0.062,0.0583
1764313287870,1.6816,3.7107,10.6828,-0.0866,-0.062,0.0583
1764313287880,1.6816,3.7107,10.6828,0.1378,0.0687,-0.0113
1764313287890,0.9033,3.5163,10.1133,0.1378,0.0687,-0.0113
1764313287900,0.9033,3.5163,10.1133,0.1808,0.1355,0.0893
1764313287910,0.6383,3.4379,9.5073,0.1808,0.1355,0.0893
1764313287920,0.6383,3.4379,9.5073,0.2164,0.0137,0.1881
1764313287930,1.1629,3.7232,9.551,0.2164,0.0137,0.1881
1764313287940,1.1629,3.7232,9.551,0.2599,0.0038,0.1727
1764313287950,1.2024,3.7615,9.2363,0.2599,0.0038,0.1727
1764313287960,1.2024,3.7615,9.2363,0.2298,0.1607,0.1544
1764313287970,0.5731,3.53,9.0574,0.2298,0.1607,0.1544
1764313287980,0.5731,3.53,9.0574,0.2298,0.1607,0.1544
1764313287990,0.5731,3.53,9.0574,0.1663,0.2465,0.2521
1764313288000,0.4917,3.3787,9.2423,0.1663,0.2465,0.2521
1764313288010,0.4917,3.3787,9.2423,0.1906,0.3163,0.3535
1764313288020,0.4738,3.5432,8.531,0.1906,0.3163,0.3535
1764313288030,0.4738,3.5432,8.531,0.1382,0.2514,0.4016
1764313288040,0.7819,3.9817,8.1099,0.1382,0.2514,0.4016
1764313288050,0.7819,3.9817,8.1099,0.0278,0.1171,0.3587
1764313288060,0.8806,3.9751,8.598,0.0278,0.1171,0.3587
1764313288070,0.8806,3.9751,8.598,-0.0179,0.1614,0.3125
1764313288080,0.7597,3.5767,9.0006,-0.0179,0.1614,0.3125
1764313288090,0.7597,3.5767,9.0006,0.011,0.137,0.3294
1764313288100,1.0881,3.6957,9.5396,0.011,0.137,0.3294
1764313288110,1.0881,3.6957,9.5396,0.011,0.137,0.3294
1764313288120,0.9111,3.6084,9.4403,0.2091,0.0699,0.2567
1764313288130,0.9111,3.6084,9.4403,0.2091,0.0699,0.2567
1764313288140,0.9111,3.6084,9.4403,0.3829,-0.0365,0.2196
1764313288150,0.8249,3.801,9.2824,0.3829,-0.0365,0.2196
1764313288160,0.8249,3.801,9.2824,0.4774,-0.1872,0.1947
1764313288170,1.1599,4.0295,9.4116,0.4774,-0.1872,0.1947
1764313288180,1.1599,4.0295,9.4116,0.5237,-0.1294,0.1417
1764313288190,1.1743,4.0594,9.6909,0.5237,-0.1294,0.1417
1764313288200,1.1743,4.0594,9.6909,0.5119,0.049,0.1516
1764313288210,0.6814,3.7346,9.7753,0.5119,0.049,0.1516
1764313288220,0.6814,3.7346,9.7753,0.4745,0.2071,0.3144
1764313288230,0.5085,3.8889,9.4546,0.4745,0.2071,0.3144
1764313288240,0.5085,3.8889,9.4546,0.4745,0.2071,0.3144
1764313288250,0.7484,4.3053,9.0078,0.4476,0.244,0.4733
1764313288260,0.7484,4.3053,9.0078,0.4476,0.244,0.4733
1764313288270,0.7484,4.3053,9.0078,0.4284,0.2205,0.5373
1764313288280,0.935,4.4441,8.5819,0.4284,0.2205,0.5373
1764313288290,0.935,4.4441,8.5819,0.4359,0.1452,0.525
1764313288300,1.1456,4.5045,8.4072,0.4359,0.1452,0.525
1764313288310,1.1456,4.5045,8.4072,0.4742,0.0507,0.4794
1764313288320,1.008,4.5159,8.0578,0.4742,0.0507,0.4794
1764313288330,1.008,4.5159,8.0578,0.4271,0.0182,0.4782
1764313288340,1.145,4.5817,8.1912,0.4271,0.0182,0.4782
1764313288350,1.145,4.5817,8.1912,0.3638,0.0296,0.4789
1764313288360,1.5332,4.5206,8.5627,0.3638,0.0296,0.4789
1764313288370,1.5332,4.5206,8.5627,0.3638,0.0296,0.4789
1764313288380,1.4243,4.5482,8.5789,0.42,0.0243,0.4004
1764313288390,1.4243,4.5482,8.5789,0.42,0.0243,0.4004
1764313288400,1.4243,4.5482,8.5789,0.5444,-0.0425,0.3222
1764313288410,1.0355,4.4662,8.2158,0.5444,-0.0425,0.3222
1764313288420,1.0355,4.4662,8.2158,0.6057,-0.0805,0.3418
1764313288430,0.1484,4.2467,7.9795,0.6057,-0.0805,0.3418
1764313288440,0.1484,4.2467,7.9795,0.6106,-0.113,0.5837
1764313288450,0.3093,4.2724,7.6122,0.6106,-0.113,0.5837
1764313288460,0.3093,4.2724,7.6122,0.5444,-0.1985,0.7767
1764313288470,1.1294,4.5703,7.7354,0.5444,-0.1985,0.7767
1764313288480,1.1294,4.5703,7.7354,0.5852,-0.4597,0.8004
1764313288490,1.6588,4.733,8.4006,0.5852,-0.4597,0.8004
1764313288500,1.6588,4.733,8.4006,0.7966,-0.739,0.7555
1764313288510,2.1476,4.9358,8.7494,0.7966,-0.739,0.7555
1764313288520,2.1476,4.9358,8.7494,0.7966,-0.739,0.7555
1764313288530,2.1476,4.9358,8.7494,0.98,-0.7989,0.7022
1764313288540,2.2816,5.0459,8.4945,0.98,-0.7989,0.7022
1764313288550,2.2816,5.0459,8.4945,0.9441,-0.589,0.735
1764313288560,2.2702,5.1093,7.815,0.9441,-0.589,0.735
1764313288570,2.2702,5.1093,7.815,0.7943,-0.3044,0.8036
1764313288580,2.7356,5.5723,6.9852,0.7943,-0.3044,0.8036
1764313288590,2.7356,5.5723,6.9852,0.3826,0.2967,0.8242
1764313288600,3.88,5.8863,7.3412,0.3826,0.2967,0.8242
1764313288610,3.88,5.8863,7.3412,-0.6402,2.4766,0.8822
1764313288620,5.6387,6.323,7.5123,-0.6402,2.4766,0.8822
1764313288630,5.6387,6.323,7.5123,-0.6402,2.4766,0.8822
1764313288640,7.0935,8.1787,4.4393,-2.6938,6.9074,0.8877
1764313288650,7.0935,8.1787,4.4393,-2.6938,6.9074,0.8877
1764313288660,7.5888,8.9109,0.3093,-5.7664,12.033,0.6426
1764313288670,7.5888,8.9109,0.3093,-5.7664,12.033,0.6426
1764313288680,7.5888,8.9109,0.3093,-8.7175,15.9979,-0.4814
1764313288690,3.9398,7.0648,-2.4299,-8.7175,15.9979,-0.4814
1764313288700,3.9398,7.0648,-2.4299,-9.4243,16.2582,-2.0003
1764313288710,-5.0668,0.1615,-4.7013,-9.4243,16.2582,-2.0003
1764313288720,-5.0668,0.1615,-4.7013,-6.7395,10.0025,-2.6585
1764313288730,-12.9147,-4.4201,-3.2237,-6.7395,10.0025,-2.6585
1764313288740,-12.9147,-4.4201,-3.2237,-1.9161,-0.241,-2.9943
1764313288750,-14.4323,-9.0048,5.9713,-1.9161,-0.241,-2.9943
1764313288760,-14.4323,-9.0048,5.9713,1.1858,-5.0468,-1.9772
1764313288770,-11.3581,-8.4006,10.812,1.1858,-5.0468,-1.9772
1764313288780,-11.3581,-8.4006,10.812,1.1858,-5.0468,-1.9772
1764313288790,-9.7472,-5.9856,10.1611,0.4806,-2.9804,-0.7269
1764313288800,-9.7472,-5.9856,10.1611,0.4806,-2.9804,-0.7269
1764313288810,-9.7472,-5.9856,10.1611,-1.1985,-0.3326,-0.1999
1764313288820,-9.938,-4.2706,10.0977,-1.1985,-0.3326,-0.1999
1764313288830,-9.938,-4.2706,10.0977,-0.9479,-0.556,-0.1263
1764313288840,-9.9482,-3.5874,10.8072,-0.9479,-0.556,-0.1263
1764313288850,-9.9482,-3.5874,10.8072,0.5466,-2.2532,-0.1168
1764313288860,-9.2333,-3.3547,10.4483,0.5466,-2.2532,-0.1168
1764313288870,-9.2333,-3.3547,10.4483,1.6816,-3.4818,0.0869
1764313288880,-7.5194,-3.0401,9.6018,1.6816,-3.4818,0.0869
1764313288890,-7.5194,-3.0401,9.6018,1.9201,-3.7052,0.323
1764313288900,-5.1111,-2.4042,9.9003,1.9201,-3.7052,0.323
1764313288910,-5.1111,-2.4042,9.9003,1.7126,-3.1531,0.3555
1764313288920,-3.7202,-1.8317,10.3196,1.7126,-3.1531,0.3555
1764313288930,-3.7202,-1.8317,10.3196,1.7126,-3.1531,0.3555
1764313288940,-3.6144,-1.5966,10.1551,1.653,-2.7637,0.2311
1764313288950,-3.6144,-1.5966,10.1551,1.653,-2.7637,0.2311
1764313288960,-3.6144,-1.5966,10.1551,2.1351,-3.2231,0.1512
1764313288970,-3.4134,-1.1641,9.7926,2.1351,-3.2231,0.1512
1764313288980,-3.4134,-1.1641,9.7926,2.915,-4.2307,0.0515
1764313288990,-2.2217,-0.2758,9.1663,2.915,-4.2307,0.0515
1764313289000,-2.2217,-0.2758,9.1663,3.4245,-5.0693,-0.1642
1764313289010,-1.1695,0.6377,8.7194,3.4245,-5.0693,-0.1642
1764313289020,-1.1695,0.6377,8.7194,3.5129,-5.5949,-0.3558
1764313289030,-0.3858,1.1282,9.9864,3.5129,-5.5949,-0.3558
1764313289040,-0.3858,1.1282,9.9864,3.4638,-5.1523,-0.3241
1764313289050,0.198,1.5876,10.2138,3.4638,-5.1523,-0.3241
1764313289060,0.198,1.5876,10.2138,3.4638,-5.1523,-0.3241
1764313289070,0.7454,1.9783,8.8499,2.905,-3.5201,-0.0809
1764313289080,0.7454,1.9783,8.8499,2.905,-3.5201,-0.0809
1764313289090,0.7454,1.9783,8.8499,1.7101,-1.5507,0.2897
1764313289100,1.6684,2.6022,7.6074,1.7101,-1.5507,0.2897
1764313289110,1.6684,2.6022,7.6074,0.67,-0.2698,0.4595
1764313289120,2.2415,3.4074,7.1629,0.67,-0.2698,0.4595
1764313289130,2.2415,3.4074,7.1629,0.2492,-0.0328,0.3198
1764313289140,2.3007,3.5689,7.2712,0.2492,-0.0328,0.3198
1764313289150,2.3007,3.5689,7.2712,0.2228,-0.2743,0.0982
1764313289160,2.1284,3.399,7.8245,0.2228,-0.2743,0.0982
1764313289170,2.1284,3.399,7.8245,0.202,-0.37,-0.006
1764313289180,2.1362,3.3272,8.5005,0.202,-0.37,-0.006
1764313289190,2.1362,3.3272,8.5005,0.202,-0.37,-0.006
1764313289200,1.7611,2.7488,8.6417,0.1258,-0.0852,-0.0041
1764313289210,1.7611,2.7488,8.6417,0.1258,-0.0852,-0.0041
1764313289220,1.7611,2.7488,8.6417,-0.0037,0.3974,0.1297
1764313289230,1.0851,3.1155,7.6588,-0.0037,0.3974,0.1297
1764313289240,1.0851,3.1155,7.6588,-0.3086,0.376,0.4337
1764313289250,1.8251,3.3422,8.0674,-0.3086,0.376,0.4337
1764313289260,1.8251,3.3422,8.0674,-0.4397,0.1074,0.464
1764313289270,2.8875,3.4247,9.1376,-0.4397,0.1074,0.464
1764313289280,2.8875,3.4247,9.1376,-0.2866,-0.0063,0.237
1764313289290,3.2243,3.7053,9.6419,-0.2866,-0.0063,0.237
1764313289300,3.2243,3.7053,9.6419,-0.1312,-0.1122,-0.0374
1764313289310,2.8379,3.5222,10.0576,-0.1312,-0.1122,-0.0374
1764313289320,2.8379,3.5222,10.0576,-0.1312,-0.1122,-0.0374
1764313289330,2.8379,3.5222,10.0576,-0.0359,-0.0732,-0.2207
1764313289340,2.3067,3.1202,10.1886,-0.0359,-0.0732,-0.2207
1764313289350,2.3067,3.1202,10.1886,0.0681,-0.0576,-0.248
1764313289360,2.0518,3.079,10.0612,0.0681,-0.0576,-0.248
1764313289370,2.0518,3.079,10.0612,0.1907,-0.0483,-0.1747
1764313289380,2.2092,3.2004,9.7496,0.1907,-0.0483,-0.1747
1764313289390,2.2092,3.2004,9.7496,0.2057,-0.0058,-0.1575
1764313289400,2.4694,3.2782,9.6239,0.2057,-0.0058,-0.1575
1764313289410,2.4694,3.2782,9.6239,0.217,0.0368,-0.2248
1764313289420,2.2457,3.2925,9.1531,0.217,0.0368,-0.2248
1764313289430,2.2457,3.2925,9.1531,0.2399,0.0515,-0.2847
1764313289440,1.8425,3.2794,8.461,0.2399,0.0515,-0.2847
1764313289450,1.8425,3.2794,8.461,0.1356,-0.0776,-0.2883
1764313289460,1.742,3.131,8.6411,0.1356,-0.0776,-0.2883
1764313289470,1.742,3.131,8.6411,0.1356,-0.0776,-0.2883
1764313289480,1.742,3.131,8.6411,0.1451,-0.1122,-0.2815
1764313289490,1.6044,3.2004,8.1069,0.1451,-0.1122,-0.2815
1764313289500,1.6044,3.2004,8.1069,0.1145,-0.2112,-0.2582
1764313289510,1.8598,3.3757,7.8885,0.1145,-0.2112,-0.2582
1764313289520,1.8598,3.3757,7.8885,-0.0538,-0.2535,-0.2561
1764313289530,2.251,3.5833,8.19,-0.0538,-0.2535,-0.2561
1764313289540,2.251,3.5833,8.19,-0.221,-0.1697,-0.3302
1764313289550,2.7194,3.6036,8.9551,-0.221,-0.1697,-0.3302
1764313289560,2.7194,3.6036,8.9551,-0.25,-0.1497,-0.4647
1764313289570,2.5137,3.5288,9.1023,-0.25,-0.1497,-0.4647
1764313289580,2.5137,3.5288,9.1023,-0.25,-0.1497,-0.4647
1764313289590,1.7838,3.3643,8.522,-0.1319,-0.146,-0.5742
1764313289600,1.7838,3.3643,8.522,-0.1319,-0.146,-0.5742
1764313289610,1.4201,3.2417,8.6429,-0.0745,-0.3577,-0.5461
1764313289620,1.4201,3.2417,8.6429,-0.0745,-0.3577,-0.5461
1764313289630,1.4201,3.2417,8.6429,-0.0941,-0.4499,-0.4403
1764313289640,1.6098,2.9037,9.1645,-0.0941,-0.4499,-0.4403
1764313289650,1.6098,2.9037,9.1645,-0.1575,-0.3236,-0.3123
1764313289660,1.9011,2.8552,9.7878,-0.1575,-0.3236,-0.3123
1764313289670,1.9011,2.8552,9.7878,-0.1984,-0.1101,-0.241
1764313289680,1.9125,2.8158,10.1061,-0.1984,-0.1101,-0.241
1764313289690,1.9125,2.8158,10.1061,-0.2161,0.1468,-0.1941
1764313289700,2.0578,3.0897,9.8375,-0.2161,0.1468,-0.1941
1764313289710,2.0578,3.0897,9.8375,-0.1886,0.1289,-0.2431
1764313289720,2.272,3.3691,9.9254,-0.1886,0.1289,-0.2431
1764313289730,2.272,3.3691,9.9254,-0.1886,0.1289,-0.2431
1764313289740,2.272,3.3691,9.9254,-0.0076,-0.0589,-0.3876
1764313289750,2.0991,3.2668,9.9224,-0.0076,-0.0589,-0.3876
1764313289760,2.0991,3.2668,9.9224,0.1649,-0.1885,-0.476
1764313289770,1.7354,3.0712,9.6957,0.1649,-0.1885,-0.476
1764313289780,1.7354,3.0712,9.6957,0.2359,-0.1994,-0.4276
1764313289790,1.6863,3.0407,9.2806,0.2359,-0.1994,-0.4276
1764313289800,1.6863,3.0407,9.2806,0.1959,-0.1252,-0.3432
1764313289810,1.9825,3.3434,8.7338,0.1959,-0.1252,-0.3432
1764313289820,1.9825,3.3434,8.7338,0.1319,-0.1909,-0.3583
1764313289830,2.2235,3.533,8.5364,0.1319,-0.1909,-0.3583
1764313289840,2.2235,3.533,8.5364,0.1319,-0.1909,-0.3583
1764313289850,2.1601,3.5031,8.6973,0.0799,-0.2618,-0.4494
1764313289860,2.1601,3.5031,8.6973,0.0399,-0.2323,-0.5082
