Timestamp,ax,ay,az,gx,gy,gz
1764313207320,1.7743,4.4106,8.2534,0.7085,-0.5085,0.3838
1764313207330,1.7743,4.4106,8.2534,0.7085,-0.5085,0.3838
1764313207340,1.7743,4.4106,8.2534,0.735,-0.5951,0.3516
1764313207350,0.8835,4.1145,8.5406,0.735,-0.5951,0.3516
1764313207360,0.8835,4.1145,8.5406,0.876,-0.5049,0.5202
1764313207370,0.67,4.1623,8.2253,0.876,-0.5049,0.5202
1764313207380,0.67,4.1623,8.2253,0.73,0.0202,0.9372
1764313207390,2.9605,4.8036,9.0287,0.73,0.0202,0.9372
1764313207400,2.9605,4.8036,9.0287,-0.2106,2.0962,1.1257
1764313207410,7.6014,6.8925,11.9127,-0.2106,2.0962,1.1257
1764313207420,7.6014,6.8925,11.9127,-2.2142,6.8822,0.8109
1764313207430,11.071,9.0305,12.3787,-2.2142,6.8822,0.8109
1764313207440,11.071,9.0305,12.3787,-4.6704,12.8627,-0.0826
1764313207450,8.9653,8.8247,7.2724,-4.6704,12.8627,-0.0826
1764313207460,8.9653,8.8247,7.2724,-4.6704,12.8627,-0.0826
1764313207470,8.9653,8.8247,7.2724,-6.1508,16.3825,-0.9711
1764313207480,3.2369,6.4636,2.0417,-6.1508,16.3825,-0.9711
1764313207490,3.2369,6.4636,2.0417,-5.4746,14.9517,-1.4955
1764313207500,-4.0744,3.6144,-1.5398,-5.4746,14.9517,-1.4955
1764313207510,-4.0744,3.6144,-1.5398,-2.6936,8.5002,-1.8401
1764313207520,-11.0644,0.5563,-2.8026,-2.6936,8.5002,-1.8401
1764313207530,-11.0644,0.5563,-2.8026,0.1755,0.8957,-1.8834
1764313207540,-14.0764,-3.2363,0.4367,0.1755,0.8957,-1.8834
1764313207550,-14.0764,-3.2363,0.4367,1.0024,-2.5531,-0.8315
1764313207560,-11.3001,-4.2592,5.6806,1.0024,-2.5531,-0.8315
1764313207570,-11.3001,-4.2592,5.6806,1.0024,-2.5531,-0.8315
1764313207580,-7.9711,-1.3974,5.8989,0.0672,-1.1368,0.2877
1764313207590,-7.9711,-1.3974,5.8989,0.0672,-1.1368,0.2877
1764313207600,-7.5374,0.2979,4.8784,-0.7396,0.2007,0.4664
1764313207610,-7.5374,0.2979,4.8784,-0.7396,0.2007,0.4664
1764313207620,-7.5374,0.2979,4.8784,-0.534,-0.3679,0.1187
1764313207630,-8.7972,0.0843,4.5769,-0.534,-0.3679,0.1187
1764313207640,-8.7972,0.0843,4.5769,0.0208,-1.6423,0.0058
1764313207650,-9.7232,-0.5264,4.2497,0.0208,-1.6423,0.0058
1764313207660,-9.7232,-0.5264,4.2497,0.4467,-2.9997,0.2376
1764313207670,-9.3206,-0.5043,3.816,0.4467,-2.9997,0.2376
1764313207680,-9.3206,-0.5043,3.816,0.8502,-4.7764,0.3975
1764313207690,-7.7019,-0.1836,4.2532,0.8502,-4.7764,0.3975
1764313207700,-7.7019,-0.1836,4.2532,1.5266,-7.2462,0.3398
1764313207710,-5.2989,0.3332,6.8608,1.5266,-7.2462,0.3398
1764313207720,-5.2989,0.3332,6.8608,1.5266,-7.2462,0.3398
1764313207730,-5.2989,0.3332,6.8608,2.8025,-9.8164,0.1859
1764313207740,-2.592,0.8345,10.9364,2.8025,-9.8164,0.1859
1764313207750,-2.592,0.8345,10.9364,4.1273,-10.7624,0.1455
1764313207760,0.1711,1.3083,14.5974,4.1273,-10.7624,0.1455
1764313207770,0.1711,1.3083,14.5974,4.6808,-8.8533,0.3366
1764313207780,1.2173,2.321,14.7972,4.6808,-8.8533,0.3366
1764313207790,1.2173,2.321,14.7972,3.6134,-4.2987,0.8306
1764313207800,2.2839,3.1346,10.3687,3.6134,-4.2987,0.8306
1764313207810,2.2839,3.1346,10.3687,1.1777,0.0654,1.2729
1764313207820,3.0903,4.6935,7.7498,1.1777,0.0654,1.2729
1764313207830,3.0903,4.6935,7.7498,-0.6219,2.3549,1.2533
1764313207840,2.8965,5.1194,6.8931,-0.6219,2.3549,1.2533
1764313207850,2.8965,5.1194,6.8931,-0.9126,2.0754,0.8065
1764313207860,1.6211,4.392,7.5482,-0.9126,2.0754,0.8065
1764313207870,1.6211,4.392,7.5482,-0.9126,2.0754,0.8065
1764313207880,1.6211,4.392,7.5482,-0.1692,0.679,0.4701
1764313207890,0.652,3.4014,8.3539,-0.1692,0.679,0.4701
1764313207900,0.652,3.4014,8.3539,0.4247,-0.1602,0.4326
1764313207910,0.585,2.787,8.7517,0.4247,-0.1602,0.4326
1764313207920,0.585,2.787,8.7517,0.405,0.0185,0.673
1764313207930,1.3478,3.1597,8.2612,0.405,0.0185,0.673
1764313207940,1.3478,3.1597,8.2612,-0.0466,0.495,0.8056
1764313207950,2.0913,3.7968,8.3988,-0.0466,0.495,0.8056
1764313207960,2.0913,3.7968,8.3988,-0.3254,0.6118,0.7085
1764313207970,2.117,4.0935,8.9569,-0.3254,0.6118,0.7085
1764313207980,2.117,4.0935,8.9569,-0.3254,0.6118,0.7085
1764313207990,1.6349,3.993,9.4152,-0.2037,0.3398,0.4945
1764313208000,1.6349,3.993,9.4152,-0.2037,0.3398,0.4945
1764313208010,1.4608,3.8465,9.5252,0.0825,0.0199,0.3438
1764313208020,1.4608,3.8465,9.5252,0.0825,0.0199,0.3438
1764313208030,1.4608,3.8465,9.5252,0.234,-0.0638,0.2753
1764313208040,1.1982,3.7394,9.1777,0.234,-0.0638,0.2753
1764313208050,1.1982,3.7394,9.1777,0.1591,0.0324,0.3039
1764313208060,0.8518,3.3625,9.1262,0.1591,0.0324,0.3039
1764313208070,0.8518,3.3625,9.1262,0.0312,0.2987,0.4012
1764313208080,0.5803,3.6419,8.6764,0.0312,0.2987,0.4012
1764313208090,0.5803,3.6419,8.6764,-0.1619,0.255,0.5796
1764313208100,1.0134,3.5827,9.1711,-0.1619,0.255,0.5796
1764313208110,1.0134,3.5827,9.1711,-0.1031,0.0771,0.5964
1764313208120,1.6116,3.7442,9.551,-0.1031,0.0771,0.5964
1764313208130,1.6116,3.7442,9.551,-0.1031,0.0771,0.5964
1764313208140,1.9059,3.9864,9.5121,0.1706,-0.1492,0.4641
1764313208150,1.9059,3.9864,9.5121,0.1706,-0.1492,0.4641
1764313208160,1.9059,3.9864,9.5121,0.3925,-0.2511,0.3141
1764313208170,1.7695,4.0409,9.0144,0.3925,-0.2511,0.3141
1764313208180,1.7695,4.0409,9.0144,0.4038,-0.1907,0.2303
1764313208190,1.6223,3.9996,8.5675,0.4038,-0.1907,0.2303
1764313208200,1.6223,3.9996,8.5675,0.2166,-0.0111,0.2271
1764313208210,1.7527,4.0905,8.3976,0.2166,-0.0111,0.2271
1764313208220,1.7527,4.0905,8.3976,-0.0002,0.1174,0.1617
1764313208230,1.6397,4.0786,8.5137,-0.0002,0.1174,0.1617
1764313208240,1.6397,4.0786,8.5137,-0.0002,0.1174,0.1617
1764313208250,1.3029,3.8363,8.7117,-0.1067,0.135,0.0959
1764313208260,1.3029,3.8363,8.7117,-0.1067,0.135,0.0959
1764313208270,1.3747,3.6766,9.2028,-0.108,0.0571,0.1104
1764313208280,1.3747,3.6766,9.2028,-0.108,0.0571,0.1104
1764313208290,1.3747,3.6766,9.2028,-0.0278,0.0205,0.1348
1764313208300,1.7456,3.8506,9.3482,-0.0278,0.0205,0.1348
1764313208310,1.7456,3.8506,9.3482,0.0764,-0.0266,0.0512
1764313208320,1.7928,3.8895,9.4487,0.0764,-0.0266,0.0512
1764313208330,1.7928,3.8895,9.4487,0.1839,-0.0605,-0.0585
1764313208340,1.5266,3.8411,9.2507,0.1839,-0.0605,-0.0585
1764313208350,1.5266,3.8411,9.2507,0.2256,-0.0304,-0.1013
1764313208360,1.3226,3.9176,8.8857,0.2256,-0.0304,-0.1013
1764313208370,1.3226,3.9176,8.8857,0.155,0.0321,-0.1103
1764313208380,1.1115,4.0068,8.5597,0.155,0.0321,-0.1103
1764313208390,1.1115,4.0068,8.5597,0.155,0.0321,-0.1103
1764313208400,1.0211,3.9733,8.747,0.0362,0.0454,-0.1159
1764313208410,1.0211,3.9733,8.747,0.0362,0.0454,-0.1159
1764313208420,1.0211,3.9733,8.747,0.0101,0.0502,-0.1301
1764313208430,1.142,4.0247,9.1155,0.0101,0.0502,-0.1301
1764313208440,1.142,4.0247,9.1155,0.087,-0.0165,-0.1733
1764313208450,1.1055,3.9087,9.2154,0.087,-0.0165,-0.1733
1764313208460,1.1055,3.9087,9.2154,0.1445,0.027,-0.1633
1764313208470,0.7896,3.9434,8.6495,0.1445,0.027,-0.1633
1764313208480,0.7896,3.9434,8.6495,0.0895,-0.0308,-0.0961
1764313208490,0.7334,3.9308,8.7559,0.0895,-0.0308,-0.0961
1764313208500,0.7334,3.9308,8.7559,0.0582,-0.0817,-0.0247
1764313208510,1.0349,3.9422,8.9815,0.0582,-0.0817,-0.0247
1764313208520,1.0349,3.9422,8.9815,0.1228,-0.2031,-0.0454
1764313208530,1.4722,4.0917,9.128,0.1228,-0.2031,-0.0454
1764313208540,1.4722,4.0917,9.128,0.1228,-0.2031,-0.0454
1764313208550,1.5631,4.1366,9.07,0.245,-0.3089,-0.1452
1764313208560,1.5631,4.1366,9.07,0.245,-0.3089,-0.1452
1764313208570,1.5631,4.1366,9.07,0.3111,-0.4133,-0.2527
1764313208580,1.3418,4.0822,9.0323,0.3111,-0.4133,-0.2527
1764313208590,1.3418,4.0822,9.0323,0.4956,-0.741,-0.3041
1764313208600,0.6042,3.7328,8.7039,0.4956,-0.741,-0.3041
1764313208610,0.6042,3.7328,8.7039,0.8657,-1.4218,-0.2515
1764313208620,-0.5904,3.3703,8.2857,0.8657,-1.4218,-0.2515
1764313208630,-0.5904,3.3703,8.2857,1.3543,-2.2526,0.1019
1764313208640,0.7071,3.6072,8.0303,1.3543,-2.2526,0.1019
1764313208650,0.7071,3.6072,8.0303,1.6186,-2.6811,0.3517
1764313208660,2.0399,4.1539,8.814,1.6186,-2.6811,0.3517
1764313208670,2.0399,4.1539,8.814,1.6186,-2.6811,0.3517
1764313208680,2.0399,4.1539,8.814,1.4485,-1.7083,0.565
1764313208690,4.7743,5.4861,10.0343,1.4485,-1.7083,0.565
1764313208700,4.7743,5.4861,10.0343,-0.0701,1.9697,0.7275
1764313208710,10.0259,7.9663,11.1858,-0.0701,1.9697,0.7275
1764313208720,10.0259,7.9663,11.1858,-3.3888,8.9441,0.2885
1764313208730,13.7635,9.6305,11.3689,-3.3888,8.9441,0.2885
1764313208740,13.7635,9.6305,11.3689,-6.7615,16.8492,-0.6745
1764313208750,13.59,9.5725,7.8359,-6.7615,16.8492,-0.6745
1764313208760,13.59,9.5725,7.8359,-7.6098,20.8962,-1.7518
1764313208770,6.923,5.9103,0.3015,-7.6098,20.8962,-1.7518
1764313208780,6.923,5.9103,0.3015,-4.2289,16.2699,-2.5552
1764313208790,-6.5695,1.7103,-8.4371,-4.2289,16.2699,-2.5552
1764313208800,-6.5695,1.7103,-8.4371,-4.2289,16.2699,-2.5552
1764313208810,-15.5276,-2.3306,-10.0612,0.8741,4.6139,-3.092
1764313208820,-15.5276,-2.3306,-10.0612,0.8741,4.6139,-3.092
1764313208830,-15.5276,-2.3306,-10.0612,2.5244,-3.6991,-2.2955
1764313208840,-12.2064,-5.275,1.9448,2.5244,-3.6991,-2.2955
1764313208850,-12.2064,-5.275,1.9448,0.7929,-2.5951,-0.8563
1764313208860,-7.876,-2.7918,7.4357,0.7929,-2.5951,-0.8563
1764313208870,-7.876,-2.7918,7.4357,-0.6689,0.5531,-0.6955
1764313208880,-8.9444,-1.8855,5.1984,-0.6689,0.5531,-0.6955
1764313208890,-8.9444,-1.8855,5.1984,-0.4632,0.0796,-0.965
1764313208900,-11.1278,-2.7697,6.2967,-0.4632,0.0796,-0.965
1764313208910,-11.1278,-2.7697,6.2967,0.5191,-1.3167,-0.8181
1764313208920,-10.7216,-2.5298,7.7204,0.5191,-1.3167,-0.8181
1764313208930,-10.7216,-2.5298,7.7204,0.5191,-1.3167,-0.8181
1764313208940,-9.6604,-1.2855,6.9248,1.1765,-1.6441,-0.5008
1764313208950,-9.6604,-1.2855,6.9248,1.1765,-1.6441,-0.5008
1764313208960,-9.6604,-1.2855,6.9248,1.1961,-1.3546,-0.3622
1764313208970,-9.0957,-0.3464,5.3216,1.1961,-1.3546,-0.3622
1764313208980,-9.0957,-0.3464,5.3216,0.7903,-1.2353,-0.3757
1764313208990,-9.2219,-0.4516,4.8736,0.7903,-1.2353,-0.3757
1764313209000,-9.2219,-0.4516,4.8736,0.5208,-1.6858,-0.3326
1764313209010,-8.991,-1.0002,5.3964,0.5208,-1.6858,-0.3326
1764313209020,-8.991,-1.0002,5.3964,0.7214,-2.7541,-0.2112
1764313209030,-8.0339,-1.1378,6.6269,0.7214,-2.7541,-0.2112
1764313209040,-8.0339,-1.1378,6.6269,1.4412,-4.167,-0.155
1764313209050,-6.1974,-0.7573,7.9938,1.4412,-4.167,-0.155
1764313209060,-6.1974,-0.7573,7.9938,2.4025,-5.5602,-0.2915
1764313209070,-4.7964,0.0144,8.4622,2.4025,-5.5602,-0.2915
1764313209080,-4.7964,0.0144,8.4622,2.4025,-5.5602,-0.2915
1764313209090,-4.7964,0.0144,8.4622,3.1521,-6.7414,-0.5194
1764313209100,-3.9224,0.4822,8.6112,3.1521,-6.7414,-0.5194
1764313209110,-3.9224,0.4822,8.6112,3.5006,-7.5036,-0.6196
1764313209120,-2.5394,1.0828,9.1657,3.5006,-7.5036,-0.6196
1764313209130,-2.5394,1.0828,9.1657,3.6328,-7.7904,-0.6417
1764313209140,-0.6251,1.5093,11.1141,3.6328,-7.7904,-0.6417
1764313209150,-0.6251,1.5093,11.1141,3.6508,-6.9287,-0.5799
1764313209160,1.3819,2.5777,11.5173,3.6508,-6.9287,-0.5799
1764313209170,1.3819,2.5777,11.5173,3.1043,-4.855,-0.5676
1764313209180,1.6816,3.3482,9.5629,3.1043,-4.855,-0.5676
1764313209190,1.6816,3.3482,9.5629,3.1043,-4.855,-0.5676
1764313209200,0.9458,3.4152,7.5583,2.0618,-2.682,-0.5044
1764313209210,0.9458,3.4152,7.5583,2.0618,-2.682,-0.5044
1764313209220,0.3984,4.593,6.0156,1.0029,-1.0589,-0.1839
1764313209230,0.3984,4.593,6.0156,1.0029,-1.0589,-0.1839
1764313209240,0.3984,4.593,6.0156,0.0373,-0.3793,0.2059
1764313209250,1.5302,4.6164,6.0586,0.0373,-0.3793,0.2059
1764313209260,1.5302,4.6164,6.0586,-0.536,-0.2233,0.2486
1764313209270,3.1741,4.6726,7.3286,-0.536,-0.2233,0.2486
1764313209280,3.1741,4.6726,7.3286,-0.6012,-0.3711,-0.1257
1764313209290,3.6257,4.4489,8.8373,-0.6012,-0.3711,-0.1257
1764313209300,3.6257,4.4489,8.8373,-0.3824,-0.416,-0.4878
1764313209310,2.744,3.929,9.4863,-0.3824,-0.416,-0.4878
1764313209320,2.744,3.929,9.4863,-0.2909,-0.1762,-0.5638
1764313209330,1.9178,3.3661,9.6048,-0.2909,-0.1762,-0.5638
1764313209340,1.9178,3.3661,9.6048,-0.2909,-0.1762,-0.5638
1764313209350,1.9304,3.4056,9.5396,-0.3036,0.0895,-0.416
1764313209360,1.9304,3.4056,9.5396,-0.3036,0.0895,-0.416
1764313209370,1.9304,3.4056,9.5396,-0.2941,0.2482,-0.2946
1764313209380,2.2816,3.8267,9.3147,-0.2941,0.2482,-0.2946
1764313209390,2.2816,3.8267,9.3147,-0.2644,0.203,-0.3424
1764313209400,2.3737,4.1408,9.2297,-0.2644,0.203,-0.3424
1764313209410,2.3737,4.1408,9.2297,-0.1875,0.0165,-0.4907
1764313209420,2.0734,3.8967,9.3655,-0.1875,0.0165,-0.4907
1764313209430,2.0734,3.8967,9.3655,-0.0686,-0.153,-0.5762
1764313209440,1.7049,3.6544,9.3781,-0.0686,-0.153,-0.5762
1764313209450,1.7049,3.6544,9.3781,0.0582,-0.255,-0.5838
1764313209460,1.5314,3.5539,9.1914,0.0582,-0.255,-0.5838
1764313209470,1.5314,3.5539,9.1914,0.0768,-0.2303,-0.568
1764313209480,1.3621,3.46,8.9318,0.0768,-0.2303,-0.568
1764313209490,1.3621,3.46,8.9318,0.0768,-0.2303,-0.568
1764313209500,1.3621,3.46,8.9318,-0.0115,-0.1477,-0.5316
1764313209510,1.1928,3.277,9.0652,-0.0115,-0.1477,-0.5316
1764313209520,1.1928,3.277,9.0652,-0.0693,-0.0524,-0.462
1764313209530,1.133,3.4295,8.9815,-0.0693,-0.0524,-0.462
1764313209540,1.133,3.4295,8.9815,-0.1179,0.0263,-0.4125
1764313209550,1.1043,3.524,8.9312,-0.1179,0.0263,-0.4125
1764313209560,1.1043,3.524,8.9312,-0.1136,0.0192,-0.3893
1764313209570,1.0373,3.6132,8.6937,-0.1136,0.0192,-0.3893
1764313209580,1.0373,3.6132,8.6937,-0.0776,-0.0675,-0.3578
1764313209590,0.9619,3.5414,8.4383,-0.0776,-0.0675,-0.3578
1764313209600,0.9619,3.5414,8.4383,-0.0819,-0.2017,-0.3268
1764313209610,1.1342,3.5797,8.4706,-0.0819,-0.2017,-0.3268
1764313209620,1.1342,3.5797,8.4706,-0.0819,-0.2017,-0.3268
1764313209630,1.5015,3.5145,8.9521,-0.1136,-0.2295,-0.316
1764313209640,1.5015,3.5145,8.9521,-0.1136,-0.2295,-0.316
1764313209650,1.5015,3.5145,8.9521,-0.1959,-0.1807,-0.3439
1764313209660,1.6002,3.2572,10.0511,-0.1959,-0.1807,-0.3439
1764313209670,1.6002,3.2572,10.0511,-0.066,-0.0328,-0.3297
1764313209680,1.4345,3.3517,10.0822,-0.066,-0.0328,-0.3297
1764313209690,1.4345,3.3517,10.0822,0.1161,-0.0541,-0.2983
1764313209700,1.2748,3.4953,9.862,0.1161,-0.0541,-0.2983
1764313209710,1.2748,3.4953,9.862,0.2456,-0.1616,-0.2596
1764313209720,1.3268,3.4917,10.0146,0.2456,-0.1616,-0.2596
1764313209730,1.3268,3.4917,10.0146,0.3554,-0.1961,-0.2263
1764313209740,1.2808,3.5671,9.8333,0.3554,-0.1961,-0.2263
1764313209750,1.2808,3.5671,9.8333,0.3554,-0.1961,-0.2263
1764313209760,1.3178,3.8381,9.6802,0.4296,-0.2083,-0.1689
1764313209770,1.3178,3.8381,9.6802,0.4296,-0.2083,-0.1689
1764313209780,1.3178,3.8381,9.6802,0.5095,-0.2552,-0.135
1764313209790,1.1486,3.8172,9.6509,0.5095,-0.2552,-0.135
1764313209800,1.1486,3.8172,9.6509,0.6625,-0.3615,-0.0619
1764313209810,1.0038,3.8112,9.6114,0.6625,-0.3615,-0.0619
1764313209820,1.0038,3.8112,9.6114,0.8315,-0.4216,0.0426
1764313209830,1.4483,4.0522,9.4343,0.8315,-0.4216,0.0426
1764313209840,1.4483,4.0522,9.4343,0.7961,-0.047,0.137
1764313209850,1.8694,4.5769,9.0718,0.7961,-0.047,0.137
1764313209860,1.8694,4.5769,9.0718,0.6026,0.3654,0.1269
1764313209870,1.9382,4.9418,8.6076,0.6026,0.3654,0.1269
1764313209880,1.9382,4.9418,8.6076,0.6026,0.3654,0.1269
1764313209890,1.1928,4.8126,8.1356,0.5614,0.401,0.0144
1764313209900,1.1928,4.8126,8.1356,0.5614,0.401,0.0144
1764313209910,1.1928,4.8126,8.1356,0.6768,0.0816,-0.0035
1764313209920,0.8818,4.8317,7.5553,0.6768,0.0816,-0.0035
1764313209930,0.8818,4.8317,7.5553,0.6898,-0.3879,0.067
1764313209940,1.0319,4.7551,7.7306,0.6898,-0.3879,0.067
1764313209950,1.0319,4.7551,7.7306,0.6625,-0.5,0.1312
1764313209960,1.2078,4.4955,8.2283,0.6625,-0.5,0.1312
1764313209970,1.2078,4.4955,8.2283,0.6784,-0.2592,0.2538
1764313209980,2.0512,4.6756,8.6369,0.6784,-0.2592,0.2538
1764313209990,2.0512,4.6756,8.6369,0.3905,0.761,0.3781
1764313210000,4.0056,5.6836,9.7884,0.3905,0.761,0.3781
1764313210010,4.0056,5.6836,9.7884,-0.8558,3.8947,0.4769
1764313210020,8.7607,7.3681,11.3994,-0.8558,3.8947,0.4769
1764313210030,8.7607,7.3681,11.3994,-0.8558,3.8947,0.4769
1764313210040,8.7607,7.3681,11.3994,-3.2784,9.5,-0.0018
1764313210050,12.3793,9.6419,10.599,-3.2784,9.5,-0.0018
1764313210060,12.3793,9.6419,10.599,-5.3648,15.4494,-1.1441
1764313210070,11.3641,9.3685,4.9304,-5.3648,15.4494,-1.1441
1764313210080,11.3641,9.3685,4.9304,-5.6493,17.6306,-2.3868
1764313210090,3.679,6.0443,-2.9797,-5.6493,17.6306,-2.3868
1764313210100,3.679,6.0443,-2.9797,-3.2878,12.8181,-3.1458
1764313210110,-8.0513,2.4538,-9.0784,-3.2878,12.8181,-3.1458
1764313210120,-8.0513,2.4538,-9.0784,-0.047,3.5297,-3.3581
1764313210130,-14.8558,-2.7996,-7.5458,-0.047,3.5297,-3.3581
1764313210140,-14.8558,-2.7996,-7.5458,0.9187,-2.8036,-2.286
1764313210150,-13.6546,-5.9456,3.3224,0.9187,-2.8036,-2.286
1764313210160,-13.6546,-5.9456,3.3224,0.9187,-2.8036,-2.286
1764313210170,-9.8088,-3.5635,7.4722,0.0712,-2.1802,-0.6214
1764313210180,-9.8088,-3.5635,7.4722,0.0712,-2.1802,-0.6214
1764313210190,-9.8088,-3.5635,7.4722,-0.6072,-0.0565,-0.1749
1764313210200,-8.9061,-1.4644,5.677,-0.6072,-0.0565,-0.1749
1764313210210,-8.9061,-1.4644,5.677,-0.4896,-0.0451,-0.4905
1764313210220,-10.5894,-1.3795,4.8132,-0.4896,-0.0451,-0.4905
1764313210230,-10.5894,-1.3795,4.8132,-0.1133,-0.877,-0.5611
1764313210240,-11.8122,-1.7868,5.2678,-0.1133,-0.877,-0.5611
1764313210250,-11.8122,-1.7868,5.2678,0.1843,-1.3755,-0.2036
1764313210260,-11.6303,-1.4728,5.1218,0.1843,-1.3755,-0.2036
1764313210270,-11.6303,-1.4728,5.1218,0.3629,-1.7445,0.1888
1764313210280,-10.6319,-0.8632,3.8764,0.3629,-1.7445,0.1888
1764313210290,-10.6319,-0.8632,3.8764,0.3629,-1.7445,0.1888
1764313210300,-10.6319,-0.8632,3.8764,0.5692,-2.938,0.3187
1764313210310,-9.7502,-0.6873,3.8524,0.5692,-2.938,0.3187
1764313210320,-9.7502,-0.6873,3.8524,1.0566,-4.934,0.3439
1764313210330,-7.9047,-0.5707,5.0219,1.0566,-4.934,0.3439
1764313210340,-7.9047,-0.5707,5.0219,1.0566,-4.934,0.3439
1764313210350,-6.3075,-0.6634,8.3414,2.0064,-7.515,0.2592
1764313210360,-6.3075,-0.6634,8.3414,3.5137,-9.568,0.3454
1764313210370,-3.3248,-0.0748,10.5488,3.5137,-9.568,0.3454
1764313210380,-3.3248,-0.0748,10.5488,4.6323,-9.9924,0.4664
1764313210390,-0.3607,1.3878,11.6818,4.6323,-9.9924,0.4664
1764313210400,-0.3607,1.3878,11.6818,4.6323,-9.9924,0.4664
1764313210410,0.5408,2.2349,10.5344,4.704,-8.4061,0.4444
1764313210420,0.5408,2.2349,10.5344,4.704,-8.4061,0.4444
1764313210430,1.7097,3.2459,8.9952,3.9922,-6.0367,0.5954
1764313210440,1.7097,3.2459,8.9952,3.9922,-6.0367,0.5954
1764313210450,1.7097,3.2459,8.9952,2.781,-3.3735,0.929
1764313210460,4.6582,5.071,8.3157,2.781,-3.3735,0.929
1764313210470,4.6582,5.071,8.3157,1.0371,-0.0287,0.8644
1764313210480,5.2881,6.3093,6.457,1.0371,-0.0287,0.8644
1764313210490,5.2881,6.3093,6.457,-0.5687,2.1806,0.4971
1764313210500,3.6784,5.7284,6.1639,-0.5687,2.1806,0.4971
1764313210510,3.6784,5.7284,6.1639,-1.0426,2.3185,0.1947
1764313210520,1.8826,4.9819,6.6556,-1.0426,2.3185,0.1947
1764313210530,1.8826,4.9819,6.6556,-0.5284,1.1872,0.0559
1764313210540,0.871,4.4668,6.7268,-0.5284,1.1872,0.0559
1764313210550,0.871,4.4668,6.7268,-0.5284,1.1872,0.0559
1764313210560,0.871,4.4668,6.7268,-0.0971,0.0889,0.0434
1764313210570,0.6861,3.8225,7.5153,-0.0971,0.0889,0.0434
1764313210580,0.6861,3.8225,7.5153,-0.0794,-0.2938,0.1489
1764313210590,1.3705,3.5605,8.7799,-0.0794,-0.2938,0.1489
1764313210600,1.3705,3.5605,8.7799,-0.223,-0.0947,0.2416
1764313210610,2.1601,4.0612,9.5892,-0.223,-0.0947,0.2416
1764313210620,2.1601,4.0612,9.5892,-0.3723,0.266,0.1439
1764313210630,1.876,4.0564,9.7675,-0.3723,0.266,0.1439
1764313210640,1.876,4.0564,9.7675,-0.422,0.3545,0.049
1764313210650,1.584,3.9541,10.1103,-0.422,0.3545,0.049
1764313210660,1.584,3.9541,10.1103,-0.2889,0.2775,-0.0087
1764313210670,1.002,4.1079,10.2287,-0.2889,0.2775,-0.0087
1764313210680,1.002,4.1079,10.2287,-0.0538,0.3009,-0.0015
1764313210690,0.4774,3.3709,9.4104,-0.0538,0.3009,-0.0015
1764313210700,0.4774,3.3709,9.4104,-0.0538,0.3009,-0.0015
1764313210710,0.7286,3.8638,8.927,0.0324,0.1872,0.1758
1764313210720,0.7286,3.8638,8.927,0.0324,0.1872,0.1758
1764313210730,0.7286,3.8638,8.927,0.0467,-0.1565,0.2709
1764313210740,1.5057,3.5952,9.3625,0.0467,-0.1565,0.2709
1764313210750,1.5057,3.5952,9.3625,0.2053,-0.1628,0.2181
1764313210760,1.748,3.798,9.1759,0.2053,-0.1628,0.2181
1764313210770,1.748,3.798,9.1759,0.2669,-0.1646,0.1297
1764313210780,1.7456,3.8285,8.9157,0.2669,-0.1646,0.1297
1764313210790,1.7456,3.8285,8.9157,0.221,-0.0312,0.0376
1764313210800,1.3304,3.9159,8.5663,0.221,-0.0312,0.0376
1764313210810,1.3304,3.9159,8.5663,0.1107,0.0174,-0.0166
1764313210820,0.9314,3.8285,8.5412,0.1107,0.0174,-0.0166
1764313210830,0.9314,3.8285,8.5412,0.1107,0.0174,-0.0166
1764313210840,0.932,3.9117,8.4646,0.0761,-0.0275,0.0157
1764313210850,0.932,3.9117,8.4646,0.0761,-0.0275,0.0157
1764313210860,0.932,3.9117,8.4646,0.0565,-0.0576,0.0405
1764313210870,1.066,3.8028,8.4503,0.0565,-0.0576,0.0405
1764313210880,1.066,3.8028,8.4503,-0.0111,-0.0202,0.0695
1764313210890,1.1043,3.8638,8.5101,-0.0111,-0.0202,0.0695
1764313210900,1.1043,3.8638,8.5101,-0.1358,0.0919,0.1028
1764313210910,1.343,3.8267,9.1819,-0.1358,0.0919,0.1028
1764313210920,1.343,3.8267,9.1819,-0.345,0.5255,0.172
1764313210930,1.5398,3.8028,9.594,-0.345,0.5255,0.172
1764313210940,1.5398,3.8028,9.594,-0.5783,1.1104,0.2216
1764313210950,1.6175,3.9733,9.9177,-0.5783,1.1104,0.2216
1764313210960,1.6175,3.9733,9.9177,-0.5783,1.1104,0.2216
1764313210970,1.2395,3.7119,9.8662,-0.7349,1.6438,0.1807
1764313210980,1.2395,3.7119,9.8662,-0.7349,1.6438,0.1807
1764313210990,1.2395,3.7119,9.8662,-0.6675,1.7631,0.0861
1764313211000,0.4869,3.5426,9.4403,-0.6675,1.7631,0.0861
1764313211010,0.4869,3.5426,9.4403,-0.3743,1.277,-0.0153
1764313211020,-0.265,3.3176,8.8546,-0.3743,1.277,-0.0153
1764313211030,-0.265,3.3176,8.8546,0.0354,0.3888,-0.0817
1764313211040,-0.804,3.1346,8.4359,0.0354,0.3888,-0.0817
1764313211050,-0.804,3.1346,8.4359,0.3505,-0.5289,-0.0692
1764313211060,-0.7561,3.0646,9.0287,0.3505,-0.5289,-0.0692
1764313211070,-0.7561,3.0646,9.0287,0.4368,-0.8028,0.0202
1764313211080,0.14,3.2112,9.8907,0.4368,-0.8028,0.0202
1764313211090,0.14,3.2112,9.8907,0.3444,-0.4438,0.0402
1764313211100,0.5934,3.4301,9.9936,0.3444,-0.4438,0.0402
1764313211110,0.5934,3.4301,9.9936,0.3444,-0.4438,0.0402
1764313211120,0.5934,3.4301,9.9936,0.1904,0.0785,0.0038
1764313211130,0.2028,3.5492,9.2393,0.1904,0.0785,0.0038
1764313211140,0.2028,3.5492,9.2393,0.0875,0.2166,0.025
1764313211150,-0.1448,3.6018,8.9432,0.0875,0.2166,0.025
1764313211160,-0.1448,3.6018,8.9432,0.1266,0.0466,0.0389
1764313211170,-0.0526,3.6772,8.9192,0.1266,0.0466,0.0389
1764313211180,-0.0526,3.6772,8.9192,0.2517,-0.2147,0.0099
1764313211190,0.2124,3.725,9.1531,0.2517,-0.2147,0.0099
1764313211200,0.2124,3.725,9.1531,0.3587,-0.277,-0.0382
1764313211210,0.2124,3.725,9.1531,0.3587,-0.277,-0.0382
1764313211220,0.0622,3.5498,9.1179,0.328,-0.0791,-0.0057
1764313211230,-0.4164,3.4756,9.0628,0.328,-0.0791,-0.0057
1764313211240,-0.4164,3.4756,9.0628,0.328,-0.0791,-0.0057
1764313211250,-0.4164,3.4756,9.0628,0.2097,0.1323,0.1874
1764313211260,-0.061,3.7771,8.8008,0.2097,0.1323,0.1874
1764313211270,-0.061,3.7771,8.8008,0.1362,0.0394,0.2558
1764313211280,0.4917,4.0427,9.1472,0.1362,0.0394,0.2558
1764313211290,0.4917,4.0427,9.1472,0.3651,-0.307,0.1431
1764313211300,1.0349,4.1043,9.3882,0.3651,-0.307,0.1431
1764313211310,1.0349,4.1043,9.3882,0.9007,-1.1128,-0.1034
1764313211320,0.5713,4.0008,9.7179,0.9007,-1.1128,-0.1034
1764313211330,0.5713,4.0008,9.7179,1.5492,-1.8108,-0.2744
1764313211340,-0.1149,3.5019,8.6877,1.5492,-1.8108,-0.2744
1764313211350,-0.1149,3.5019,8.6877,1.865,-2.3529,-0.1457
1764313211360,0.3111,3.7938,8.8618,1.865,-2.3529,-0.1457
1764313211370,0.3111,3.7938,8.8618,1.865,-2.3529,-0.1457
1764313211380,1.3842,4.3328,8.659,1.826,-2.0479,0.1294
1764313211390,1.3842,4.3328,8.659,1.826,-2.0479,0.1294
1764313211400,1.3842,4.3328,8.659,1.3141,-0.9716,0.3764
1764313211410,2.415,4.8018,8.531,1.3141,-0.9716,0.3764
1764313211420,2.415,4.8018,8.531,0.5741,0.5944,0.5954
1764313211430,4.6008,6.0556,9.7831,0.5741,0.5944,0.5954
1764313211440,4.6008,6.0556,9.7831,-0.5165,3.7284,0.5846
1764313211450,9.4869,8.2427,9.5474,-0.5165,3.7284,0.5846
1764313211460,9.4869,8.2427,9.5474,-2.7025,9.3595,0.009
1764313211470,16.2598,12.21,7.2024,-2.7025,9.3595,0.009
1764313211480,16.2598,12.21,7.2024,-5.8344,16.5828,-1.5433
1764313211490,19.7252,12.5067,2.3659,-5.8344,16.5828,-1.5433
1764313211500,19.7252,12.5067,2.3659,-5.8344,16.5828,-1.5433
1764313211510,11.1936,8.5807,-7.7402,-6.9416,20.3062,-3.7464
1764313211520,11.1936,8.5807,-7.7402,-6.9416,20.3062,-3.7464
1764313211530,11.1936,8.5807,-7.7402,-3.6485,14.1663,-5.3599
1764313211540,-4.5577,3.7693,-19.0026,-3.6485,14.1663,-5.3599
1764313211550,-4.5577,3.7693,-19.0026,0.7996,0.8021,-6.3101
1764313211560,-16.2461,-9.4146,-9.9099,0.7996,0.8021,-6.3101
1764313211570,-16.2461,-9.4146,-9.9099,1.1209,-6.1703,-4.1411
1764313211580,-14.2528,-12.7173,11.275,1.1209,-6.1703,-4.1411
1764313211590,-14.2528,-12.7173,11.275,-0.3374,-2.2955,-1.7029
1764313211600,-10.7916,-8.817,11.9767,-0.3374,-2.2955,-1.7029
1764313211610,-10.7916,-8.817,11.9767,-0.9087,0.9963,-1.3975
1764313211620,-15.3607,-8.3306,5.1284,-0.9087,0.9963,-1.3975
1764313211630,-15.3607,-8.3306,5.1284,-0.1924,-0.877,-0.961
1764313211640,-16.7324,-7.4722,6.4636,-0.1924,-0.877,-0.961
1764313211650,-16.7324,-7.4722,6.4636,-0.1924,-0.877,-0.961
1764313211660,-16.7324,-7.4722,6.4636,0.9032,-2.7153,-0.093
1764313211670,-14.9659,-5.3635,6.2088,0.9032,-2.7153,-0.093
1764313211680,-14.9659,-5.3635,6.2088,1.5621,-3.7987,0.7506
1764313211690,-11.6178,-2.7009,4.5212,1.5621,-3.7987,0.7506
1764313211700,-11.6178,-2.7009,4.5212,1.9829,-5.2524,1.0292
1764313211710,-8.5101,-1.0929,5.1254,1.9829,-5.2524,1.0292
1764313211720,-8.5101,-1.0929,5.1254,2.5249,-6.9425,0.7946
1764313211730,-6.6951,-0.9685,6.5815,2.5249,-6.9425,0.7946
1764313211740,-6.6951,-0.9685,6.5815,3.4984,-9.0903,0.6257
1764313211750,-4.0403,-1.1264,10.4722,3.4984,-9.0903,0.6257
1764313211760,-4.0403,-1.1264,10.4722,4.9669,-10.3658,0.5484
1764313211770,-0.9637,0.1119,11.9958,4.9669,-10.3658,0.5484
1764313211780,-0.9637,0.1119,11.9958,4.9669,-10.3658,0.5484
1764313211790,1.5314,1.9394,11.8187,6.2988,-10.4724,0.2815
1764313211800,1.5314,1.9394,11.8187,6.2988,-10.4724,0.2815
1764313211810,1.5314,1.9394,11.8187,6.2592,-8.28,0.1672
1764313211820,2.875,3.0688,9.7687,6.2592,-8.28,0.1672
1764313211830,2.875,3.0688,9.7687,4.1672,-3.7435,0.4598
1764313211840,3.8016,3.9643,6.0042,4.1672,-3.7435,0.4598
1764313211850,3.8016,3.9643,6.0042,1.1496,0.5789,0.7708
1764313211860,3.9685,4.7827,3.947,1.1496,0.5789,0.7708
1764313211870,3.9685,4.7827,3.947,-0.8644,2.5719,0.7947
1764313211880,3.7101,5.266,3.8967,-0.8644,2.5719,0.7947
1764313211890,3.7101,5.266,3.8967,-1.2373,1.9135,0.4429
1764313211900,2.7787,4.465,6.5659,-1.2373,1.9135,0.4429
1764313211910,2.7787,4.465,6.5659,-1.2373,1.9135,0.4429
1764313211920,2.8283,3.8542,8.5053,-0.2937,0.2825,0.1843
1764313211930,2.8283,3.8542,8.5053,-0.2937,0.2825,0.1843
1764313211940,2.8283,3.8542,8.5053,0.6177,-0.6559,0.0812
1764313211950,3.3416,3.7986,9.1585,0.6177,-0.6559,0.0812
1764313211960,3.3416,3.7986,9.1585,0.8186,-0.5093,0.1252
1764313211970,3.3703,4.0487,8.7015,0.8186,-0.5093,0.1252
1764313211980,3.3703,4.0487,8.7015,0.359,0.3687,0.2912
1764313211990,2.1087,3.8285,8.3498,0.359,0.3687,0.2912
1764313212000,2.1087,3.8285,8.3498,-0.2045,1.3827,0.6058
1764313212010,1.87,4.6421,6.8495,-0.2045,1.3827,0.6058
1764313212020,1.87,4.6421,6.8495,-0.7266,1.2277,0.8801
1764313212030,2.6722,4.8162,7.8024,-0.7266,1.2277,0.8801
1764313212040,2.6722,4.8162,7.8024,-0.7266,1.2277,0.8801
1764313212050,3.3948,4.5715,9.5169,-0.6321,0.5406,0.7307
1764313212060,3.3948,4.5715,9.5169,-0.6321,0.5406,0.7307
1764313212070,3.3948,4.5715,9.5169,0.037,-0.144,0.394
1764313212080,3.5737,4.4076,9.9769,0.037,-0.144,0.394
1764313212090,3.5737,4.4076,9.9769,0.6347,-0.5362,0.1231
1764313212100,3.3368,4.2174,9.329,0.6347,-0.5362,0.1231
1764313212110,3.3368,4.2174,9.329,0.7685,-0.4336,0.0029
1764313212120,2.6907,3.9757,8.1912,0.7685,-0.4336,0.0029
1764313212130,2.6907,3.9757,8.1912,0.5443,-0.1338,0.0803
1764313212140,2.5591,4.3101,7.4016,0.5443,-0.1338,0.0803
1764313212150,2.5591,4.3101,7.4016,0.2214,0.0547,0.1623
1764313212160,2.7787,4.8114,7.4273,0.2214,0.0547,0.1623
1764313212170,2.7787,4.8114,7.4273,0.0214,0.078,0.1318
1764313212180,2.8493,4.4859,7.7049,0.0214,0.078,0.1318
1764313212190,2.8493,4.4859,7.7049,0.0214,0.078,0.1318
1764313212200,2.8493,4.4859,7.7049,0.0024,0.0258,0.0715
1764313212210,2.6596,4.3579,7.48,0.0024,0.0258,0.0715
1764313212220,2.6596,4.3579,7.48,-0.0457,-0.1155,0.0461
1764313212230,2.9719,4.2796,8.0381,-0.0457,-0.1155,0.0461
1764313212240,2.9719,4.2796,8.0381,-0.0982,-0.0454,-0.0296
1764313212250,2.8008,4.1444,8.1529,-0.0982,-0.0454,-0.0296
1764313212260,2.8008,4.1444,8.1529,-0.0925,0.0308,-0.0509
1764313212270,2.54,4.2461,7.5165,-0.0925,0.0308,-0.0509
1764313212280,2.54,4.2461,7.5165,-0.1797,-0.0779,-0.0397
1764313212290,2.7547,4.6134,7.9454,-0.1797,-0.0779,-0.0397
1764313212300,2.7547,4.6134,7.9454,-0.4239,0.0299,-0.0773
1764313212310,3.7137,4.4106,9.8662,-0.4239,0.0299,-0.0773
1764313212320,3.7137,4.4106,9.8662,-0.4239,0.0299,-0.0773
1764313212330,3.2321,3.9051,10.4919,-0.4862,0.5137,-0.1758
1764313212340,3.2321,3.9051,10.4919,-0.4862,0.5137,-0.1758
1764313212350,3.2321,3.9051,10.4919,-0.2682,0.7634,-0.1975
1764313212360,2.2361,3.859,10.0487,-0.2682,0.7634,-0.1975
1764313212370,2.2361,3.859,10.0487,0.0105,0.5883,-0.1242
1764313212380,2.0495,4.0134,9.6012,0.0105,0.5883,-0.1242
1764313212390,2.0495,4.0134,9.6012,0.2349,0.2764,-0.0944
1764313212400,1.9687,4.06,9.1854,0.2349,0.2764,-0.0944
1764313212410,1.9687,4.06,9.1854,0.3592,0.0797,-0.0961
1764313212420,1.9298,4.1569,8.924,0.3592,0.0797,-0.0961
1764313212430,1.9298,4.1569,8.924,0.3884,-0.0133,-0.0866
1764313212440,2.0405,4.0786,8.9127,0.3884,-0.0133,-0.0866
1764313212450,2.0405,4.0786,8.9127,0.3884,-0.0133,-0.0866
1764313212460,2.0405,4.0786,8.9127,0.3709,0.1225,-0.0634
1764313212470,2.0495,4.1701,8.5268,0.3709,0.1225,-0.0634
1764313212480,2.0495,4.1701,8.5268,0.3282,0.1602,-0.0854
1764313212490,1.8138,4.2179,8.2493,0.3282,0.1602,-0.0854
1764313212500,1.8138,4.2179,8.2493,0.2967,0.1042,-0.0594
1764313212510,1.7456,4.325,8.0267,0.2967,0.1042,-0.0594
1764313212520,1.7456,4.325,8.0267,0.2158,0.0486,-0.0308
1764313212530,2.0309,4.5476,8.3623,0.2158,0.0486,-0.0308
1764313212540,2.0309,4.5476,8.3623,0.1901,0.0748,-0.0614
1764313212550,1.9986,4.2849,8.5759,0.1901,0.0748,-0.0614
1764313212560,1.9986,4.2849,8.5759,0.1901,0.0748,-0.0614
1764313212570,1.7545,4.337,8.4102,0.2279,0.1371,-0.0673
1764313212580,1.7545,4.337,8.4102,0.2821,0.029,-0.0301
1764313212590,1.7025,4.4459,8.2265,0.2821,0.029,-0.0301
1764313212600,1.7025,4.4459,8.2265,0.2821,0.029,-0.0301
1764313212610,1.7025,4.4459,8.2265,0.3257,-0.1211,-0.0069
1764313212620,1.7593,4.6534,8.0148,0.3257,-0.1211,-0.0069
1764313212630,1.7593,4.6534,8.0148,0.3001,-0.2103,0.0018
1764313212640,1.6971,4.6851,7.8838,0.3001,-0.2103,0.0018
1764313212650,1.6971,4.6851,7.8838,0.1914,-0.1707,0.0625
1764313212660,1.7264,4.6409,7.931,0.1914,-0.1707,0.0625
1764313212670,1.7264,4.6409,7.931,0.1591,-0.2795,0.1081
1764313212680,1.9059,4.5799,8.2792,0.1591,-0.2795,0.1081
1764313212690,1.9059,4.5799,8.2792,0.3244,-0.5537,0.1011
1764313212700,2.2265,4.6104,8.6728,0.3244,-0.5537,0.1011
1764313212710,2.2265,4.6104,8.6728,0.3244,-0.5537,0.1011
1764313212720,2.4491,4.7749,8.4628,0.4833,-0.5895,0.0791
1764313212730,2.4491,4.7749,8.4628,0.4833,-0.5895,0.0791
1764313212740,2.4491,4.7749,8.4628,0.471,-0.4116,0.0498
1764313212750,2.8391,5.0279,8.3904,0.471,-0.4116,0.0498
1764313212760,2.8391,5.0279,8.3904,0.3123,0.0426,-0.0084
1764313212770,3.0927,5.1003,8.4449,0.3123,0.0426,-0.0084
1764313212780,3.0927,5.1003,8.4449,-0.0684,1.04,-0.0458
1764313212790,0.5629,4.3513,9.8453,-0.0684,1.04,-0.0458
1764313212800,0.5629,4.3513,9.8453,-0.828,4.0479,0.5362
1764313212810,3.8656,4.666,9.4391,-0.828,4.0479,0.5362
1764313212820,3.8656,4.666,9.4391,-2.9016,8.0442,0.7943
1764313212830,6.4481,6.2297,9.8219,-2.9016,8.0442,0.7943
1764313212840,6.4481,6.2297,9.8219,-4.7143,11.3354,0.5545
1764313212850,9.1914,8.6303,11.3085,-4.7143,11.3354,0.5545
1764313212860,9.1914,8.6303,11.3085,-4.7143,11.3354,0.5545
1764313212870,7.328,7.2885,5.9474,-5.2263,14.5542,-0.691
1764313212880,7.328,7.2885,5.9474,-5.2263,14.5542,-0.691
1764313212890,7.328,7.2885,5.9474,-4.1096,14.4175,-2.0084
1764313212900,0.6108,4.2066,-2.7242,-4.1096,14.4175,-2.0084
1764313212910,0.6108,4.2066,-2.7242,-1.9911,9.8682,-2.9483
1764313212920,-8.2869,1.1163,-9.0891,-1.9911,9.8682,-2.9483
1764313212930,-8.2869,1.1163,-9.0891,-0.3545,2.9599,-3.2286
1764313212940,-14.4347,-3.5862,-6.7035,-0.3545,2.9599,-3.2286
1764313212950,-14.4347,-3.5862,-6.7035,0.0379,-2.0099,-2.1432
1764313212960,-13.4429,-5.4592,3.0114,0.0379,-2.0099,-2.1432
1764313212970,-13.4429,-5.4592,3.0114,-0.0706,-2.6215,-0.6564
1764313212980,-8.6219,-2.4311,7.5123,-0.0706,-2.6215,-0.6564
1764313212990,-8.6219,-2.4311,7.5123,-0.0706,-2.6215,-0.6564
1764313213000,-8.6219,-2.4311,7.5123,-0.4766,-0.923,-0.5102
1764313213010,-7.6457,-0.5868,5.2702,-0.4766,-0.923,-0.5102
1764313213020,-7.6457,-0.5868,5.2702,-1.0275,-0.4754,-1.064
1764313213030,-9.3829,-1.5811,6.1226,-1.0275,-0.4754,-1.064
1764313213040,-9.3829,-1.5811,6.1226,-0.8529,-1.0786,-1.3059
1764313213050,-11.6112,-3.0455,8.3222,-0.8529,-1.0786,-1.3059
1764313213060,-11.6112,-3.0455,8.3222,0.0024,-1.8283,-0.9186
1764313213070,-12.0455,-3.6718,8.6524,0.0024,-1.8283,-0.9186
1764313213080,-12.0455,-3.6718,8.6524,0.7355,-2.4511,-0.2005
1764313213090,-10.2808,-2.9587,7.9759,0.7355,-2.4511,-0.2005
1764313213100,-10.2808,-2.9587,7.9759,0.9271,-2.6628,0.1996
1764313213110,-8.4197,-1.9639,7.5649,0.9271,-2.6628,0.1996
1764313213120,-8.4197,-1.9639,7.5649,0.9271,-2.6628,0.1996
1764313213130,-7.4255,-1.6014,7.9454,0.781,-2.6933,0.2601
1764313213140,-7.4255,-1.6014,7.9454,0.781,-2.6933,0.2601
1764313213150,-7.4255,-1.6014,7.9454,0.898,-3.1603,0.2628
1764313213160,-7.1916,-1.8933,8.869,0.898,-3.1603,0.2628
1764313213170,-7.1916,-1.8933,8.869,1.6,-4.0827,0.387
1764313213180,-6.3535,-1.5888,9.2267,1.6,-4.0827,0.387
1764313213190,-6.3535,-1.5888,9.2267,2.541,-5.1917,0.5365
1764313213200,-4.739,-0.6221,8.9779,2.541,-5.1917,0.5365
1764313213210,-4.739,-0.6221,8.9779,3.2506,-6.0894,0.5661
1764313213220,-2.7601,0.4672,9.5904,3.2506,-6.0894,0.5661
1764313213230,-2.7601,0.4672,9.5904,3.2506,-6.0894,0.5661
1764313213240,-1.1707,1.3896,9.7184,3.3952,-5.8014,0.5069
1764313213250,-1.1707,1.3896,9.7184,2.8795,-4.5922,0.4253
1764313213260,-0.3541,2.0405,9.2058,2.8795,-4.5922,0.4253
1764313213270,-0.3541,2.0405,9.2058,2.8795,-4.5922,0.4253
1764313213280,-0.3541,2.0405,9.2058,2.1704,-3.3249,0.3659
1764313213290,0.1496,2.7296,8.7356,2.1704,-3.3249,0.3659
1764313213300,0.1496,2.7296,8.7356,1.7092,-2.5081,0.3154
1764313213310,0.542,3.2668,8.3976,1.7092,-2.5081,0.3154
1764313213320,0.542,3.2668,8.3976,1.3376,-1.8518,0.257
1764313213330,0.8249,3.3326,7.8676,1.3376,-1.8518,0.257
1764313213340,0.8249,3.3326,7.8676,0.9,-1.3405,0.1846
1764313213350,0.6574,3.1519,7.9358,0.9,-1.3405,0.1846
1764313213360,0.6574,3.1519,7.9358,0.6967,-1.2782,0.1765
1764313213370,0.8949,3.3003,8.3001,0.6967,-1.2782,0.1765
1764313213380,0.8949,3.3003,8.3001,0.8106,-1.5714,0.1289
1764313213390,1.2855,3.4534,8.9886,0.8106,-1.5714,0.1289
1764313213400,1.2855,3.4534,8.9886,0.8106,-1.5714,0.1289
1764313213410,1.2855,3.4534,8.9886,0.805,-1.3445,0.1264
1764313213420,1.4345,3.3996,9.0754,0.805,-1.3445,0.1264
1764313213430,1.4345,3.3996,9.0754,0.4743,-0.699,0.254
1764313213440,1.9268,3.5079,9.3332,0.4743,-0.699,0.254
1764313213450,1.9268,3.5079,9.3332,0.1753,0.0108,0.3708
1764313213460,2.4443,4.1186,9.0305,0.1753,0.0108,0.3708
1764313213470,2.4443,4.1186,9.0305,0.0312,0.4133,0.317
1764313213480,2.388,4.2574,8.196,0.0312,0.4133,0.317
1764313213490,2.388,4.2574,8.196,-0.117,0.3764,0.2144
1764313213500,2.0847,4.1127,8.5843,-0.117,0.3764,0.2144
1764313213510,2.0847,4.1127,8.5843,-0.117,0.3764,0.2144
1764313213520,2.147,3.9159,9.5773,-0.1052,0.1335,0.1643
1764313213530,2.147,3.9159,9.5773,-0.1052,0.1335,0.1643
1764313213540,2.2624,3.9398,9.472,0.0646,0.0841,0.1516
1764313213550,2.2624,3.9398,9.472,0.0646,0.0841,0.1516
1764313213560,2.2624,3.9398,9.472,0.1335,0.177,0.126
1764313213570,2.2648,3.9368,8.8881,0.1335,0.177,0.126
1764313213580,2.2648,3.9368,8.8881,0.0704,0.1903,0.0921
1764313213590,2.6291,4.2102,8.7655,0.0704,0.1903,0.0921
1764313213600,2.6291,4.2102,8.7655,0.0455,0.1301,-0.0841
1764313213610,2.4263,4.3119,9.3284,0.0455,0.1301,-0.0841
1764313213620,2.4263,4.3119,9.3284,0.113,0.2201,-0.2121
1764313213630,0.8644,3.1071,9.0227,0.113,0.2201,-0.2121
1764313213640,0.8644,3.1071,9.0227,0.1872,0.3097,0.053
1764313213650,0.1274,3.2112,7.6983,0.1872,0.3097,0.053
1764313213660,0.1274,3.2112,7.6983,0.1872,0.3097,0.053
1764313213670,0.7579,3.5593,7.9843,-0.0696,0.0898,0.4158
1764313213680,0.7579,3.5593,7.9843,-0.0696,0.0898,0.4158
1764313213690,0.7579,3.5593,7.9843,-0.1918,-0.1976,0.5182
1764313213700,2.1039,3.8895,8.8762,-0.1918,-0.1976,0.5182
1764313213710,2.1039,3.8895,8.8762,-0.0661,-0.3858,0.3117
1764313213720,2.8044,4.2102,9.4391,-0.0661,-0.3858,0.3117
1764313213730,2.8044,4.2102,9.4391,0.0557,-0.2929,0.0055
1764313213740,2.2857,3.9799,9.3338,0.0557,-0.2929,0.0055
1764313213750,2.2857,3.9799,9.3338,0.0296,-0.0186,-0.1042
1764313213760,1.6768,3.6718,9.0485,0.0296,-0.0186,-0.1042
1764313213770,1.6768,3.6718,9.0485,-0.0342,0.1724,-0.0539
1764313213780,1.6146,3.679,9.1011,-0.0342,0.1724,-0.0539
1764313213790,1.6146,3.679,9.1011,0.0269,0.1032,-0.0153
1764313213800,1.7719,3.6784,9.1663,0.0269,0.1032,-0.0153
1764313213810,1.7719,3.6784,9.1663,0.0269,0.1032,-0.0153
1764313213820,1.8843,3.7537,9.0497,0.1802,-0.0947,-0.0263
1764313213830,1.8843,3.7537,9.0497,0.1802,-0.0947,-0.0263
1764313213840,1.8843,3.7537,9.0497,0.2532,-0.2107,-0.0426
1764313213850,1.937,3.7872,8.9079,0.2532,-0.2107,-0.0426
1764313213860,1.937,3.7872,8.9079,0.186,-0.0812,-0.0536
1764313213870,2.0608,3.9733,8.9492,0.186,-0.0812,-0.0536
1764313213880,2.0608,3.9733,8.9492,0.0321,0.1794,-0.0808
1764313213890,1.7192,3.923,8.4909,0.0321,0.1794,-0.0808
1764313213900,1.7192,3.923,8.4909,-0.071,0.2367,-0.0878
1764313213910,1.4614,3.9003,8.4754,-0.071,0.2367,-0.0878
1764313213920,1.4614,3.9003,8.4754,-0.0525,0.0431,-0.0808
1764313213930,1.1916,3.6371,8.4215,-0.0525,0.0431,-0.0808
1764313213940,1.1916,3.6371,8.4215,-0.0525,0.0431,-0.0808
1764313213950,1.2921,3.88,8.2205,0.0342,-0.1561,-0.0252
1764313213960,1.2921,3.88,8.2205,0.0342,-0.1561,-0.0252
1764313213970,1.2921,3.88,8.2205,-0.0119,-0.3105,-0.024
1764313213980,1.8742,3.8937,8.9348,-0.0119,-0.3105,-0.024
1764313213990,1.8742,3.8937,8.9348,-0.1048,-0.0564,-0.0499
1764313214000,2.0369,3.7412,9.018,-0.1048,-0.0564,-0.0499
1764313214010,2.0369,3.7412,9.018,-0.3198,0.288,-0.0692
1764313214020,1.873,3.8345,9.3912,-0.3198,0.288,-0.0692
1764313214030,1.873,3.8345,9.3912,-0.3051,0.2882,-0.0631
1764313214040,1.6493,3.6275,10.0038,-0.3051,0.2882,-0.0631
1764313214050,1.6493,3.6275,10.0038,0.0397,-0.0046,-0.0942
1764313214060,1.5159,3.5587,9.9984,0.0397,-0.0046,-0.0942
1764313214070,1.5159,3.5587,9.9984,0.0397,-0.0046,-0.0942
1764313214080,1.6714,3.7502,9.6784,0.3795,-0.3109,-0.0812
1764313214090,1.6714,3.7502,9.6784,0.3795,-0.3109,-0.0812
1764313214100,1.6714,3.7502,9.6784,0.4939,-0.3603,-0.0692
1764313214110,2.0279,3.926,9.2046,0.4939,-0.3603,-0.0692
1764313214120,2.0279,3.926,9.2046,0.4856,-0.3635,-0.1187
1764313214130,1.7623,4.0391,8.6907,0.4856,-0.3635,-0.1187
1764313214140,1.7623,4.0391,8.6907,0.5127,-0.4969,-0.1443
1764313214150,1.6062,4.1025,8.2104,0.5127,-0.4969,-0.1443
1764313214160,1.6062,4.1025,8.2104,0.5644,-0.7608,-0.157
1764313214170,0.5856,3.8219,7.788,0.5644,-0.7608,-0.157
1764313214180,0.5856,3.8219,7.788,0.7538,-1.3222,0.0128
1764313214190,0.6778,3.5862,7.1515,0.7538,-1.3222,0.0128
1764313214200,0.6778,3.5862,7.1515,0.7538,-1.3222,0.0128
1764313214210,0.6778,3.5862,7.1515,0.9865,-2.2319,0.2332
1764313214220,2.1182,3.9799,7.4046,0.9865,-2.2319,0.2332
1764313214230,2.1182,3.9799,7.4046,1.1008,-2.4335,0.3044
1764313214240,5.2337,5.6195,9.6269,1.1008,-2.4335,0.3044
1764313214250,5.2337,5.6195,9.6269,0.1301,0.445,0.2966
1764313214260,9.2973,7.7701,11.1601,0.1301,0.445,0.2966
1764313214270,9.2973,7.7701,11.1601,-3.0332,7.4438,-0.0008
1764313214280,12.743,9.6084,7.5793,-3.0332,7.4438,-0.0008
1764313214290,12.743,9.6084,7.5793,-7.3948,15.0413,-1.0803
1764313214300,10.2209,8.6955,3.1298,-7.3948,15.0413,-1.0803
1764313214310,10.2209,8.6955,3.1298,-9.6538,19.6802,-2.5566
1764313214320,0.719,3.0138,-2.9492,-9.6538,19.6802,-2.5566
1764313214330,0.719,3.0138,-2.9492,-7.9898,16.5127,-2.9552
1764313214340,-11.1972,-2.3372,-5.9103,-7.9898,16.5127,-2.9552
1764313214350,-11.1972,-2.3372,-5.9103,-7.9898,16.5127,-2.9552
1764313214360,-11.1972,-2.3372,-5.9103,-3.1884,5.9984,-2.5578
1764313214370,-17.0644,-6.0921,-0.8267,-3.1884,5.9984,-2.5578
1764313214380,-17.0644,-6.0921,-0.8267,1.7943,-3.7565,-1.5878
1764313214390,-13.2724,-7.7755,8.1278,1.7943,-3.7565,-1.5878
1764313214400,-13.2724,-7.7755,8.1278,3.5242,-5.0903,0.038
1764313214410,-6.4828,-3.6957,7.2658,3.5242,-5.0903,0.038
1764313214420,-6.4828,-3.6957,7.2658,1.8886,-2.1195,0.2442
1764313214430,-4.4907,-1.3196,3.7777,1.8886,-2.1195,0.2442
1764313214440,-4.4907,-1.3196,3.7777,-0.5055,-0.0637,-0.3708
1764313214450,-7.2838,-1.3531,5.3216,-0.5055,-0.0637,-0.3708
1764313214460,-7.2838,-1.3531,5.3216,-0.5055,-0.0637,-0.3708
1764313214470,-7.2838,-1.3531,5.3216,-0.9424,-0.3992,-0.6225
1764313214480,-9.3308,-2.1553,8.0889,-0.9424,-0.3992,-0.6225
1764313214490,-9.2925,-2.5334,8.3779,0.478,-2.2914,-0.4861
1764313214500,-9.2925,-2.5334,8.3779,0.478,-2.2914,-0.4861
1764313214510,-9.2925,-2.5334,8.3779,2.1771,-4.6632,-0.3126
1764313214520,-7.7749,-2.1344,7.4644,2.1771,-4.6632,-0.3126
1764313214530,-7.7749,-2.1344,7.4644,3.3598,-7.0089,-0.341
1764313214540,-5.342,-1.1276,8.2947,3.3598,-7.0089,-0.341
1764313214550,-5.342,-1.1276,8.2947,4.122,-8.6285,-0.4992
1764313214560,-2.8122,-0.4295,10.209,4.122,-8.6285,-0.4992
1764313214570,-2.8122,-0.4295,10.209,4.4091,-8.9,-0.5707
1764313214580,-0.7101,0.2824,12.3739,4.4091,-8.9,-0.5707
1764313214590,-0.7101,0.2824,12.3739,4.4816,-7.9513,-0.4968
1764313214600,0.5964,1.3418,13.5039,4.4816,-7.9513,-0.4968
1764313214610,0.5964,1.3418,13.5039,4.4816,-7.9513,-0.4968
1764313214620,0.5964,1.3418,13.5039,4.1417,-5.5859,-0.2234
1764313214630,1.3513,2.0183,11.653,4.1417,-5.5859,-0.2234
1764313214640,1.3513,2.0183,11.653,2.9957,-2.5071,0.221
1764313214650,2.0375,3.0132,8.4485,2.9957,-2.5071,0.221
1764313214660,2.0375,3.0132,8.4485,1.3659,0.0629,0.5788
1764313214670,2.6859,3.9673,6.1513,1.3659,0.0629,0.5788
1764313214680,2.6859,3.9673,6.1513,-0.0241,1.3677,0.5919
1764313214690,2.4311,4.215,5.9234,-0.0241,1.3677,0.5919
1764313214700,2.4311,4.215,5.9234,-0.5657,1.3173,0.3987
1764313214710,1.8694,4.0475,7.1515,-0.5657,1.3173,0.3987
1764313214720,1.8694,4.0475,7.1515,-0.2819,0.5198,0.2494
1764313214730,1.9448,3.4331,8.4455,-0.2819,0.5198,0.2494
1764313214740,1.9448,3.4331,8.4455,0.177,0.0351,0.1672
1764313214750,1.8951,3.2267,8.6189,0.177,0.0351,0.1672
1764313214760,1.8951,3.2267,8.6189,0.177,0.0351,0.1672
1764313214770,1.8951,3.2267,8.6189,0.2894,-0.0153,0.2001
1764313214780,1.9603,3.2411,8.3617,0.2894,-0.0153,0.2001
1764313214790,1.9603,3.2411,8.3617,0.1038,0.1578,0.276
1764313214800,2.461,3.6455,8.3731,0.1038,0.1578,0.276
1764313214810,2.461,3.6455,8.3731,-0.1016,0.1912,0.2169
1764313214820,2.814,3.8094,9.0419,-0.1016,0.1912,0.2169
1764313214830,2.814,3.8094,9.0419,-0.1214,0.1753,0.0567
1764313214840,2.2098,3.6341,9.6832,-0.1214,0.1753,0.0567
1764313214850,2.2098,3.6341,9.6832,-0.0073,0.2642,0.0182
1764313214860,1.2957,2.9515,9.6048,-0.0073,0.2642,0.0182
1764313214870,1.2957,2.9515,9.6048,-0.0073,0.2642,0.0182
1764313214880,1.1725,3.4953,9.0209,0.0761,0.3344,0.1912
1764313214890,1.1725,3.4953,9.0209,0.0761,0.3344,0.1912
1764313214900,2.1691,3.2907,9.5474,0.0678,-0.0947,0.4065
1764313214910,2.1691,3.2907,9.5474,0.0678,-0.0947,0.4065
1764313214920,2.1691,3.2907,9.5474,0.195,-0.051,0.3647
1764313214930,2.68,3.9607,9.1579,0.195,-0.051,0.3647
1764313214940,2.68,3.9607,9.1579,0.2132,-0.0922,0.1782
1764313214950,2.7661,3.8399,9.4929,0.2132,-0.0922,0.1782
1764313214960,2.7661,3.8399,9.4929,0.1943,0.157,0.0348
1764313214970,2.0961,3.658,8.9462,0.1943,0.157,0.0348
1764313214980,2.0961,3.658,8.9462,0.1555,0.2263,-0.0154
1764313214990,1.4584,3.5641,8.5597,0.1555,0.2263,-0.0154
1764313215000,1.4584,3.5641,8.5597,0.175,0.1115,0.0548
1764313215010,1.5332,3.5049,8.2684,0.175,0.1115,0.0548
1764313215020,1.5332,3.5049,8.2684,0.175,0.1115,0.0548
1764313215030,1.7575,3.6287,8.3366,0.1469,-0.0438,0.0764
1764313215040,1.7575,3.6287,8.3366,0.1469,-0.0438,0.0764
1764313215050,1.7575,3.6287,8.3366,0.1069,-0.1353,0.0316
1764313215060,1.8054,3.6287,8.6477,0.1069,-0.1353,0.0316
1764313215070,1.8054,3.6287,8.6477,0.0544,-0.1086,-0.0002
1764313215080,1.8203,3.5527,8.8696,0.0544,-0.1086,-0.0002
1764313215090,1.8203,3.5527,8.8696,-0.0293,0.0451,0.0194
1764313215100,1.7007,3.5701,8.6919,-0.0293,0.0451,0.0194
1764313215110,1.7007,3.5701,8.6919,-0.0864,0.0246,0.0392
1764313215120,1.785,3.6532,8.9396,-0.0864,0.0246,0.0392
1764313215130,1.785,3.6532,8.9396,-0.0086,-0.0698,0.0224
1764313215140,1.6522,3.5222,8.6746,-0.0086,-0.0698,0.0224
1764313215150,1.6522,3.5222,8.6746,-0.0086,-0.0698,0.0224
1764313215160,1.8748,3.6,8.8499,0.0257,-0.1709,0.0286
1764313215170,1.8748,3.6,8.8499,0.0257,-0.1709,0.0286
1764313215180,1.8748,3.6,8.8499,0.0218,-0.1891,0.0214
1764313215190,2.1583,3.6706,9.0849,0.0218,-0.1891,0.0214
1764313215200,2.1583,3.6706,9.0849,-0.0116,-0.0548,-0.0308
1764313215210,2.1667,3.7184,9.2758,-0.0116,-0.0548,-0.0308
1764313215220,2.1667,3.7184,9.2758,-0.0449,-0.0082,-0.0622
1764313215230,2.272,3.5958,9.8662,-0.0449,-0.0082,-0.0622
1764313215240,2.272,3.5958,9.8662,0.0609,0.0866,-0.1005
1764313215250,1.8963,3.6335,9.5665,0.0609,0.0866,-0.1005
1764313215260,1.8963,3.6335,9.5665,0.2295,-0.0837,-0.113
1764313215270,1.4943,3.5258,9.1328,0.2295,-0.0837,-0.113
1764313215280,1.4943,3.5258,9.1328,0.2295,-0.0837,-0.113
1764313215290,1.9322,3.6449,9.2859,0.3399,-0.3004,-0.0435
1764313215300,1.9322,3.6449,9.2859,0.3399,-0.3004,-0.0435
1764313215310,1.9322,3.6449,9.2859,0.3653,-0.2315,-0.0279
1764313215320,2.4329,3.8064,9.3212,0.3653,-0.2315,-0.0279
1764313215330,2.4329,3.8064,9.3212,0.3409,-0.0344,-0.0971
1764313215340,2.3198,3.9063,8.9904,0.3409,-0.0344,-0.0971
1764313215350,2.3198,3.9063,8.9904,0.3574,0.0015,-0.1623
1764313215360,1.9334,4.0738,8.4742,0.3574,0.0015,-0.1623
1764313215370,1.9334,4.0738,8.4742,0.4087,-0.2417,-0.1836
1764313215380,1.9346,4.0499,8.5998,0.4087,-0.2417,-0.1836
1764313215390,1.9346,4.0499,8.5998,0.5565,-0.5806,-0.1741
1764313215400,2.0136,4.0265,8.8026,0.5565,-0.5806,-0.1741
1764313215410,2.0136,4.0265,8.8026,0.7153,-0.8314,-0.1807
1764313215420,2.0136,4.0265,8.8026,0.7153,-0.8314,-0.1807
1764313215430,1.7964,3.9751,8.4772,0.7153,-0.8314,-0.1807
1764313215440,1.7964,3.9751,8.4772,0.856,-1.1832,-0.1944
1764313215450,0.7944,3.5833,8.9139,0.856,-1.1832,-0.1944
1764313215460,0.7944,3.5833,8.9139,1.2217,-1.5409,0.1011
1764313215470,1.6367,3.6885,8.3414,1.2217,-1.5409,0.1011
1764313215480,1.6367,3.6885,8.3414,1.4818,-1.8622,0.2372
1764313215490,2.1739,4.2245,8.1703,1.4818,-1.8622,0.2372
1764313215500,2.1739,4.2245,8.1703,1.5404,-1.553,0.3981
1764313215510,3.3153,5.0046,8.1194,1.5404,-1.553,0.3981
1764313215520,3.3153,5.0046,8.1194,0.7104,0.2669,0.6749
1764313215530,6.4768,6.4193,9.1424,0.7104,0.2669,0.6749
1764313215540,6.4768,6.4193,9.1424,-1.562,4.7388,0.7417
1764313215550,10.4375,8.7147,9.3835,-1.562,4.7388,0.7417
1764313215560,10.4375,8.7147,9.3835,-1.562,4.7388,0.7417
1764313215570,10.4375,8.7147,9.3835,-4.8666,10.8493,0.0363
1764313215580,10.5733,9.0544,8.2522,-4.8666,10.8493,0.0363
1764313215590,10.5733,9.0544,8.2522,-7.3553,16.2847,-0.9169
1764313215600,7.7557,7.7402,5.3868,-7.3553,16.2847,-0.9169
1764313215610,7.7557,7.7402,5.3868,-7.9495,18.9284,-1.8805
1764313215620,0.2285,2.5825,0.1914,-7.9495,18.9284,-1.8805
1764313215630,0.2285,2.5825,0.1914,-5.7406,15.559,-2.0323
1764313215640,-11.2271,-1.5153,-7.1085,-5.7406,15.559,-2.0323
1764313215650,-11.2271,-1.5153,-7.1085,-1.2596,5.1612,-1.7347
1764313215660,-16.3926,-3.8154,-6.3565,-1.2596,5.1612,-1.7347
1764313215670,-16.3926,-3.8154,-6.3565,-1.2596,5.1612,-1.7347
1764313215680,-13.0582,-5.607,3.0138,2.0354,-3.9581,-1.0331
1764313215690,-13.0582,-5.607,3.0138,2.0354,-3.9581,-1.0331
1764313215700,-6.9428,-1.8921,6.6437,1.938,-4.6224,0.3963
1764313215710,-6.9428,-1.8921,6.6437,1.938,-4.6224,0.3963
1764313215720,-6.9428,-1.8921,6.6437,0.1222,-1.595,0.5825
1764313215730,-4.9819,0.9523,6.4666,0.1222,-1.595,0.5825
1764313215740,-4.9819,0.9523,6.4666,-0.8008,-0.3154,-0.1492
1764313215750,-7.5386,0.5324,6.6174,-0.8008,-0.3154,-0.1492
1764313215760,-7.5386,0.5324,6.6174,-0.104,-1.575,-0.5308
1764313215770,-9.5091,-0.6855,7.1797,-0.104,-1.575,-0.5308
1764313215780,-9.5091,-0.6855,7.1797,1.1035,-3.5184,-0.36
1764313215790,-9.064,-1.0636,6.1274,1.1035,-3.5184,-0.36
1764313215800,-9.064,-1.0636,6.1274,1.9798,-5.6398,-0.0967
1764313215810,-7.1384,-0.5372,6.2626,1.9798,-5.6398,-0.0967
1764313215820,-7.1384,-0.5372,6.2626,1.9798,-5.6398,-0.0967
1764313215830,-4.5368,0.0299,7.9358,2.7741,-7.8043,-0.0553
1764313215840,-4.5368,0.0299,7.9358,2.7741,-7.8043,-0.0553
1764313215850,-4.5368,0.0299,7.9358,3.5624,-9.3856,-0.0971
1764313215860,-0.8824,0.9428,10.8365,3.5624,-9.3856,-0.0971
1764313215870,-0.8824,0.9428,10.8365,3.9509,-9.3,-0.2767
1764313215880,1.2461,2.2289,12.4295,3.9509,-9.3,-0.2767
1764313215890,1.2461,2.2289,12.4295,3.9392,-7.8664,-0.4287
1764313215900,1.474,2.7356,12.1699,3.9392,-7.8664,-0.4287
1764313215910,1.474,2.7356,12.1699,3.1712,-5.2658,-0.225
1764313215920,1.724,3.0568,10.4327,3.1712,-5.2658,-0.225
1764313215930,1.724,3.0568,10.4327,1.7685,-2.2234,0.1778
1764313215940,2.4951,3.7693,8.7709,1.7685,-2.2234,0.1778
1764313215950,2.4951,3.7693,8.7709,0.175,0.5631,0.3684
1764313215960,2.6399,3.8967,7.1785,0.175,0.5631,0.3684
1764313215970,2.6399,3.8967,7.1785,0.175,0.5631,0.3684
1764313215980,2.6399,3.8967,7.1785,-0.9279,1.7619,0.2929
1764313215990,1.7629,3.8189,7.3795,-0.9279,1.7619,0.2929
1764313216000,1.7629,3.8189,7.3795,-0.9603,1.2593,0.1553
1764313216010,1.1593,3.5019,8.3186,-0.9603,1.2593,0.1553
1764313216020,1.1593,3.5019,8.3186,-0.3457,0.2332,0.0396
1764313216030,1.0397,3.052,9.0018,-0.3457,0.2332,0.0396
1764313216040,1.0397,3.052,9.0018,0.195,-0.4536,0.0202
1764313216050,1.6044,2.8463,9.4008,0.195,-0.4536,0.0202
1764313216060,1.6044,2.8463,9.4008,0.391,-0.5365,0.0793
1764313216070,2.5926,3.1184,9.5318,0.391,-0.5365,0.0793
1764313216080,2.5926,3.1184,9.5318,0.2523,-0.1,0.0707
1764313216090,2.4694,3.5414,9.5408,0.2523,-0.1,0.0707
1764313216100,2.4694,3.5414,9.5408,0.2523,-0.1,0.0707
1764313216110,1.2843,2.8427,8.9025,-0.0043,0.5621,0.0425
1764313216120,1.2843,2.8427,8.9025,-0.0043,0.5621,0.0425
1764313216130,1.2843,2.8427,8.9025,-0.2272,0.8268,0.279
1764313216140,0.7292,3.6371,8.056,-0.2272,0.8268,0.279
1764313216150,0.7292,3.6371,8.056,-0.3931,0.0612,0.5435
1764313216160,1.7486,3.4947,9.4576,-0.3931,0.0612,0.5435
1764313216170,1.7486,3.4947,9.4576,-0.095,-0.2902,0.4343
1764313216180,2.6704,3.4487,10.0439,-0.095,-0.2902,0.4343
1764313216190,2.6704,3.4487,10.0439,0.2382,-0.4192,0.1692
1764313216200,2.7583,3.5731,9.8315,0.2382,-0.4192,0.1692
1764313216210,2.7583,3.5731,9.8315,0.3473,-0.3448,-0.0319
1764313216220,2.339,3.4122,9.405,0.3473,-0.3448,-0.0319
1764313216230,2.339,3.4122,9.405,0.3473,-0.3448,-0.0319
1764313216240,1.7067,3.4534,9.0479,0.2283,-0.0666,-0.0883
1764313216250,1.7067,3.4534,9.0479,0.2283,-0.0666,-0.0883
1764313216260,1.7067,3.4534,9.0479,0.0739,0.1219,-0.0507
1764313216270,1.4052,3.3488,8.8361,0.0739,0.1219,-0.0507
1764313216280,1.4052,3.3488,8.8361,0.0501,0.1133,0.0231
1764313216290,1.5422,3.3565,8.9216,0.0501,0.1133,0.0231
1764313216300,1.5422,3.3565,8.9216,0.1208,-0.0548,0.0344
1764313216310,1.812,3.2189,9.1884,0.1208,-0.0548,0.0344
1764313216320,1.812,3.2189,9.1884,0.2694,-0.0816,0.0237
1764313216330,1.7785,3.399,8.4479,0.2694,-0.0816,0.0237
1764313216340,1.7785,3.399,8.4479,0.1778,-0.1016,0.0082
1764313216350,1.7527,3.4822,8.3061,0.1778,-0.1016,0.0082
1764313216360,1.7527,3.4822,8.3061,0.1778,-0.1016,0.0082
1764313216370,1.8598,3.5904,8.6369,-0.0324,-0.0321,0.0107
1764313216380,1.8598,3.5904,8.6369,-0.0324,-0.0321,0.0107
1764313216390,1.8598,3.5904,8.6369,-0.1859,0.1008,-0.0137
1764313216400,1.6905,3.411,9.0748,-0.1859,0.1008,-0.0137
1764313216410,1.6905,3.411,9.0748,-0.1833,0.1042,0.0035
1764313216420,1.7121,3.2572,9.5874,-0.1833,0.1042,0.0035
1764313216430,1.7121,3.2572,9.5874,-0.0237,0.0544,0.0258
1764313216440,1.5523,3.1316,9.3595,-0.0237,0.0544,0.0258
1764313216450,1.5523,3.1316,9.3595,0.0602,-0.0756,0.0725
1764313216460,1.8269,3.3482,9.5013,0.0602,-0.0756,0.0725
1764313216470,1.8269,3.3482,9.5013,0.1429,-0.166,0.0776
1764313216480,1.9801,3.4301,9.5916,0.1429,-0.166,0.0776
1764313216490,1.9801,3.4301,9.5916,0.2121,-0.0492,0.0385
1764313216500,1.6175,3.4397,9.3147,0.2121,-0.0492,0.0385
1764313216510,1.6175,3.4397,9.3147,0.2121,-0.0492,0.0385
1764313216520,1.6175,3.4397,9.3147,0.1926,0.0182,0.0591
1764313216530,1.5829,3.2943,9.2507,0.1926,0.0182,0.0591
1764313216540,1.5829,3.2943,9.2507,0.1643,0.0519,0.0918
1764313216550,1.7725,3.3278,9.3356,0.1643,0.0519,0.0918
1764313216560,1.7725,3.3278,9.3356,0.1527,0.0771,0.1061
1764313216570,1.7773,3.4708,9.3769,0.1527,0.0771,0.1061
1764313216580,1.7773,3.4708,9.3769,0.2303,0.0015,0.1162
1764313216590,1.7659,3.5043,9.2949,0.2303,0.0015,0.1162
1764313216600,1.7659,3.5043,9.2949,0.2879,-0.0658,0.1297
1764313216610,1.8772,3.545,9.3529,0.2879,-0.0658,0.1297
1764313216620,1.8772,3.545,9.3529,0.3571,-0.1187,0.1338
1764313216630,2.1153,3.5988,9.2889,0.3571,-0.1187,0.1338
1764313216640,2.1153,3.5988,9.2889,0.3571,-0.1187,0.1338
1764313216650,2.2283,3.816,8.8899,0.4594,-0.1109,0.1011
1764313216660,2.2283,3.816,8.8899,0.4594,-0.1109,0.1011
1764313216670,2.2283,3.816,8.8899,0.5276,-0.1741,0.051
1764313216680,2.1835,4.0648,8.4311,0.5276,-0.1741,0.051
1764313216690,2.1835,4.0648,8.4311,0.5464,-0.3638,0.0075
1764313216700,2.1697,4.1617,8.4227,0.5464,-0.3638,0.0075
1764313216710,2.1697,4.1617,8.4227,0.5542,-0.5406,-0.0541
1764313216720,2.2863,4.1623,8.4706,0.5542,-0.5406,-0.0541
1764313216730,2.2863,4.1623,8.4706,0.5705,-0.6379,-0.148
1764313216740,2.1918,4.0869,8.5155,0.5705,-0.6379,-0.148
1764313216750,2.1918,4.0869,8.5155,0.5452,-0.4612,-0.1704
1764313216760,0.8405,3.6838,8.8295,0.5452,-0.4612,-0.1704
1764313216770,0.8405,3.6838,8.8295,0.5452,-0.4612,-0.1704
1764313216780,0.8405,3.6838,8.8295,0.2938,0.5403,0.2558
1764313216790,2.6004,4.8921,9.2812,0.2938,0.5403,0.2558
1764313216800,2.6004,4.8921,9.2812,-1.2175,3.3963,0.644
1764313216810,5.9504,6.2052,10.5314,-1.2175,3.3963,0.644
1764313216820,5.9504,6.2052,10.5314,-4.361,9.1106,0.5215
1764313216830,7.2706,6.4062,9.6251,-4.361,9.1106,0.5215
1764313216840,7.2706,6.4062,9.6251,-7.4567,14.9856,-0.1411
1764313216850,3.6718,5.2487,8.5675,-7.4567,14.9856,-0.1411
1764313216860,3.6718,5.2487,8.5675,-7.9669,17.2815,-0.6012
1764313216870,-3.4666,1.078,3.7777,-7.9669,17.2815,-0.6012
1764313216880,-3.4666,1.078,3.7777,-5.1962,12.9929,-0.4116
1764313216890,-8.8325,0.3972,-0.9218,-5.1962,12.9929,-0.4116
1764313216900,-8.8325,0.3972,-0.9218,-0.7014,3.8005,-0.8963
1764313216910,-10.3005,-0.4421,-0.8154,-0.7014,3.8005,-0.8963
1764313216920,-10.3005,-0.4421,-0.8154,-0.7014,3.8005,-0.8963
1764313216930,-10.3005,-0.4421,-0.8154,2.3856,-3.204,-1.2879
1764313216940,-8.7972,-2.7117,3.8459,2.3856,-3.204,-1.2879
1764313216950,-8.7972,-2.7117,3.8459,2.0611,-3.342,-0.7356
1764313216960,-6.938,-2.0387,5.5436,2.0611,-3.342,-0.7356
1764313216970,-6.938,-2.0387,5.5436,-0.0055,-0.42,-0.3932
1764313216980,-7.0762,-1.334,4.9657,-0.0055,-0.42,-0.3932
1764313216990,-7.0762,-1.334,4.9657,-1.1545,0.8001,-0.4523
1764313217000,-8.7416,-1.4471,5.3839,-1.1545,0.8001,-0.4523
1764313217010,-8.7416,-1.4471,5.3839,-0.5495,-0.5096,-0.5415
1764313217020,-9.4505,-1.7372,6.457,-0.5495,-0.5096,-0.5415
1764313217030,-9.4505,-1.7372,6.457,0.6145,-2.302,-0.5232
1764313217040,-9.3715,-1.94,6.2979,0.6145,-2.302,-0.5232
1764313217050,-9.3715,-1.94,6.2979,0.6145,-2.302,-0.5232
1764313217060,-8.1392,-1.7545,5.8146,1.3532,-3.7388,-0.3427
1764313217070,-8.1392,-1.7545,5.8146,1.3532,-3.7388,-0.3427
1764313217080,-8.1392,-1.7545,5.8146,1.7161,-5.149,-0.2772
1764313217090,-6.2291,-0.9631,6.9374,1.7161,-5.149,-0.2772
1764313217100,-6.2291,-0.9631,6.9374,2.3553,-6.868,-0.4536
1764313217110,-4.3771,-0.4032,9.4505,2.3553,-6.868,-0.4536
1764313217120,-4.3771,-0.4032,9.4505,3.3982,-8.3914,-0.6661
1764313217130,-2.4347,0.2166,11.9414,3.3982,-8.3914,-0.6661
1764313217140,-2.4347,0.2166,11.9414,3.8671,-8.1537,-0.708
1764313217150,-0.9541,0.4816,13.5799,3.8671,-8.1537,-0.708
1764313217160,-0.9541,0.4816,13.5799,3.264,-5.8131,-0.4815
1764313217170,-0.4241,0.8506,13.7157,3.264,-5.8131,-0.4815
1764313217180,-0.4241,0.8506,13.7157,3.264,-5.8131,-0.4815
1764313217190,-0.4241,0.8506,13.7157,2.2353,-2.7915,-0.0411
1764313217200,-0.1448,1.5446,11.6674,2.2353,-2.7915,-0.0411
1764313217210,-0.1448,1.5446,11.6674,1.3158,-0.5956,0.3804
1764313217220,0.1543,2.4532,9.2889,1.3158,-0.5956,0.3804
1764313217230,0.1543,2.4532,9.2889,0.6353,0.3589,0.5075
1764313217240,0.4068,2.7069,8.0225,0.6353,0.3589,0.5075
1764313217250,0.4068,2.7069,8.0225,0.4711,0.0939,0.3688
1764313217260,0.4355,2.8014,8.0865,0.4711,0.0939,0.3688
1764313217270,0.4355,2.8014,8.0865,0.8021,-0.6855,0.1904
1764313217280,0.533,2.8343,8.3815,0.8021,-0.6855,0.1904
1764313217290,0.533,2.8343,8.3815,1.005,-1.0052,0.0909
1764313217300,0.6096,2.7721,8.2253,1.005,-1.0052,0.0909
1764313217310,0.6096,2.7721,8.2253,1.005,-1.0052,0.0909
1764313217320,1.0146,2.9492,8.1105,0.7859,-0.7085,0.1707
1764313217330,1.0146,2.9492,8.1105,0.7859,-0.7085,0.1707
1764313217340,1.0146,2.9492,8.1105,0.2737,-0.0425,0.2694
1764313217350,1.4776,3.2716,8.2409,0.2737,-0.0425,0.2694
1764313217360,1.4776,3.2716,8.2409,-0.1912,0.4404,0.2485
1764313217370,1.3172,3.3422,8.6465,-0.1912,0.4404,0.2485
1764313217380,1.3172,3.3422,8.6465,-0.2509,0.3146,0.1746
1764313217390,1.4183,3.414,9.3906,-0.2509,0.3146,0.1746
1764313217400,1.4183,3.414,9.3906,0.0011,-0.0168,0.0446
1764313217410,1.1169,3.2895,9.7735,0.0011,-0.0168,0.0446
1764313217420,1.1169,3.2895,9.7735,0.2195,-0.0785,-0.0118
1764313217430,0.5838,2.79,9.3272,0.2195,-0.0785,-0.0118
1764313217440,0.5838,2.79,9.3272,0.2195,-0.0785,-0.0118
1764313217450,0.5994,3.1842,9.262,0.1775,-0.0409,0.1245
1764313217460,0.5994,3.1842,9.262,0.1775,-0.0409,0.1245
1764313217470,0.5994,3.1842,9.262,0.044,-0.0597,0.2552
1764313217480,0.944,2.9611,9.5839,0.044,-0.0597,0.2552
1764313217490,0.944,2.9611,9.5839,0.0385,0.0266,0.2705
1764313217500,1.1228,3.3153,9.484,0.0385,0.0266,0.2705
1764313217510,1.1228,3.3153,9.484,0.0365,-0.0189,0.2147
1764313217520,1.541,3.4301,9.5605,0.0365,-0.0189,0.2147
1764313217530,1.541,3.4301,9.5605,0.0228,0.0699,0.0854
1764313217540,1.3914,3.4253,9.4451,0.0228,0.0699,0.0854
1764313217550,1.3914,3.4253,9.4451,0.026,0.1313,-0.0165
1764313217560,0.9446,3.2112,9.2662,0.026,0.1313,-0.0165
1764313217570,0.9446,3.2112,9.2662,0.0374,0.1614,-0.0006
1764313217580,0.9446,3.2112,9.2662,0.0374,0.1614,-0.0006
1764313217590,0.8327,3.2171,9.149,0.0374,0.1614,-0.0006
1764313217600,1.0164,3.1597,9.2447,0.0122,0.2051,0.0304
1764313217610,1.0164,3.1597,9.2447,0.0122,0.2051,0.0304
1764313217620,1.0164,3.1597,9.2447,0.0081,0.2367,0.0221
1764313217630,0.9906,3.216,9.1681,0.0081,0.2367,0.0221
1764313217640,0.9906,3.216,9.1681,0.0367,0.1636,-0.0356
1764313217650,0.518,3.1442,8.927,0.0367,0.1636,-0.0356
1764313217660,0.518,3.1442,8.927,0.0568,-0.0046,-0.0247
1764313217670,0.3577,3.1549,8.936,0.0568,-0.0046,-0.0247
1764313217680,0.3577,3.1549,8.936,0.0452,-0.0776,0.0302
1764313217690,0.6634,3.0712,9.1723,0.0452,-0.0776,0.0302
1764313217700,0.6634,3.0712,9.1723,-0.0446,0.0605,0.0585
1764313217710,0.6431,3.0485,9.0796,-0.0446,0.0605,0.0585
1764313217720,0.6431,3.0485,9.0796,-0.0446,0.0605,0.0585
1764313217730,0.6431,3.0485,9.0796,-0.1126,0.1013,0.0793
1764313217740,0.7717,3.0592,9.4146,-0.1126,0.1013,0.0793
1764313217750,0.7717,3.0592,9.4146,-0.0962,0.0287,0.0825
1764313217760,0.6778,2.8493,9.8794,-0.0962,0.0287,0.0825
1764313217770,0.6778,2.8493,9.8794,0.0296,0.0315,0.1061
1764313217780,0.6479,3.0215,9.5348,0.0296,0.0315,0.1061
1764313217790,0.6479,3.0215,9.5348,0.0538,-0.0092,0.1439
1764313217800,0.7119,3.4283,9.1131,0.0538,-0.0092,0.1439
1764313217810,0.7119,3.4283,9.1131,0.0382,-0.1289,0.0698
1764313217820,1.1581,3.4229,9.6861,0.0382,-0.1289,0.0698
1764313217830,1.1581,3.4229,9.6861,0.0947,-0.0596,-0.0142
1764313217840,1.209,3.1478,9.6174,0.0947,-0.0596,-0.0142
1764313217850,1.209,3.1478,9.6174,0.0947,-0.0596,-0.0142
1764313217860,1.209,3.1478,9.6174,0.1278,0.1048,-0.0712
1764313217870,0.8758,3.2865,9.2554,0.1278,0.1048,-0.0712
1764313217880,0.8758,3.2865,9.2554,0.1057,0.0683,-0.0817
1764313217890,1.0277,3.3691,9.3637,0.1057,0.0683,-0.0817
1764313217900,1.0277,3.3691,9.3637,0.1327,0.036,-0.1403
1764313217910,0.8004,3.3135,9.1292,0.1327,0.036,-0.1403
1764313217920,0.8004,3.3135,9.1292,0.2036,-0.1213,-0.1672
1764313217930,0.4582,3.1346,9.0622,0.2036,-0.1213,-0.1672
1764313217940,0.4582,3.1346,9.0622,0.2479,-0.2747,-0.1188
1764313217950,0.5276,3.1172,9.2447,0.2479,-0.2747,-0.1188
1764313217960,0.5276,3.1172,9.2447,0.2503,-0.2369,-0.0675
1764313217970,0.5198,3.1537,9.134,0.2503,-0.2369,-0.0675
1764313217980,0.5198,3.1537,9.134,0.2503,-0.2369,-0.0675
1764313217990,0.3793,3.0305,9.2764,0.1965,-0.1915,0.0053
1764313218000,0.3793,3.0305,9.2764,0.1965,-0.1915,0.0053
1764313218010,0.3793,3.0305,9.2764,0.1106,-0.1118,0.1333
1764313218020,0.8554,3.3194,9.7944,0.1106,-0.1118,0.1333
1764313218030,0.8554,3.3194,9.7944,0.0721,0.0596,0.1138
1764313218040,1.0241,3.5827,10.1444,0.0721,0.0596,0.1138
1764313218050,1.0241,3.5827,10.1444,0.1484,0.2538,0.0739
1764313218060,0.9488,3.6562,9.5629,0.1484,0.2538,0.0739
1764313218070,0.9488,3.6562,9.5629,0.212,0.1211,0.0429
1764313218080,0.719,3.5815,9.35,0.212,0.1211,0.0429
1764313218090,0.719,3.5815,9.35,0.37,-0.161,0.0359
1764313218100,0.472,3.3769,9.149,0.37,-0.161,0.0359
1764313218110,0.472,3.3769,9.149,0.4951,-0.3642,0.1013
1764313218120,0.5964,3.396,8.8068,0.4951,-0.3642,0.1013
1764313218130,0.5964,3.396,8.8068,0.4951,-0.3642,0.1013
1764313218140,0.871,3.5109,8.8552,0.4629,-0.4128,0.1607
1764313218150,0.871,3.5109,8.8552,0.4629,-0.4128,0.1607
1764313218160,0.871,3.5109,8.8552,0.3103,-0.1151,0.1965
1764313218170,1.145,3.7633,9.0514,0.3103,-0.1151,0.1965
1764313218180,1.145,3.7633,9.0514,-0.1316,0.8566,0.2816
1764313218190,2.9432,4.4447,10.8622,-0.1316,0.8566,0.2816
1764313218200,2.9432,4.4447,10.8622,-1.3844,3.8995,0.3169
1764313218210,5.8038,5.6058,12.591,-1.3844,3.8995,0.3169
1764313218220,5.8038,5.6058,12.591,-3.7012,9.1416,0.0938
1764313218230,6.3966,6.0766,10.8586,-3.7012,9.1416,0.0938
1764313218240,6.3966,6.0766,10.8586,-5.6681,13.866,-0.4291
1764313218250,3.1358,5.1051,7.5344,-5.6681,13.866,-0.4291
1764313218260,3.1358,5.1051,7.5344,-5.6681,13.866,-0.4291
1764313218270,-3.2907,2.3342,2.8666,-5.5273,14.7982,-0.9262
1764313218280,-3.2907,2.3342,2.8666,-5.5273,14.7982,-0.9262
1764313218290,-3.2907,2.3342,2.8666,-2.9346,10.29,-1.2778
1764313218300,-11.1087,-0.4343,-1.9687,-2.9346,10.29,-1.2778
1764313218310,-11.1087,-0.4343,-1.9687,0.3876,2.1481,-1.3123
1764313218320,-14.2182,-3.3099,-0.0191,0.3876,2.1481,-1.3123
1764313218330,-14.2182,-3.3099,-0.0191,1.7552,-2.4238,-0.3667
1764313218340,-10.6893,-3.0981,5.2038,1.7552,-2.4238,-0.3667
1764313218350,-10.6893,-3.0981,5.2038,0.9394,-1.1945,0.5015
1764313218360,-6.1926,0.5198,5.2481,0.9394,-1.1945,0.5015
1764313218370,-6.1926,0.5198,5.2481,-0.1463,0.467,0.2576
1764313218380,-6.4164,1.9298,3.5157,-0.1463,0.467,0.2576
1764313218390,-6.4164,1.9298,3.5157,-0.1463,0.467,0.2576
1764313218400,-8.7368,0.5157,3.795,-0.1607,-0.3586,-0.3923
1764313218410,-8.7368,0.5157,3.795,-0.1607,-0.3586,-0.3923
1764313218420,-8.7368,0.5157,3.795,0.5391,-2.3556,-0.6237
1764313218430,-10.4913,-0.8106,3.8417,0.5391,-2.3556,-0.6237
1764313218440,-10.4913,-0.8106,3.8417,1.4126,-4.6855,-0.3358
1764313218450,-9.6718,-1.2526,3.6622,1.4126,-4.6855,-0.3358
1764313218460,-9.6718,-1.2526,3.6622,2.2657,-7.3689,-0.0108
1764313218470,-6.3153,0.1645,4.8718,2.2657,-7.3689,-0.0108
1764313218480,-6.3153,0.1645,4.8718,3.4749,-10.367,-0.1688
1764313218490,-2.7404,1.3795,7.7701,3.4749,-10.367,-0.1688
1764313218500,-2.7404,1.3795,7.7701,4.537,-11.9755,-0.3581
1764313218510,0.2764,2.2128,10.5159,4.537,-11.9755,-0.3581
1764313218520,0.2764,2.2128,10.5159,4.537,-11.9755,-0.3581
1764313218530,1.8347,2.4538,12.8895,4.568,-10.9482,-0.3697
1764313218540,1.8347,2.4538,12.8895,4.568,-10.9482,-0.3697
1764313218550,3.3434,3.3799,13.9741,3.7738,-7.7875,-0.0548
1764313218560,3.3434,3.3799,13.9741,3.7738,-7.7875,-0.0548
1764313218570,3.3434,3.3799,13.9741,2.273,-2.9438,0.3541
1764313218580,3.8506,4.3645,10.5188,2.273,-2.9438,0.3541
1764313218590,3.8506,4.3645,10.5188,0.2181,1.1671,0.5594
1764313218600,3.3147,5.0518,7.3047,0.2181,1.1671,0.5594
1764313218610,3.3147,5.0518,7.3047,-1.0724,2.5491,0.4708
1764313218620,2.1188,4.7701,7.0768,-1.0724,2.5491,0.4708
1764313218630,2.1188,4.7701,7.0768,-0.9261,1.5828,0.1692
1764313218640,0.9362,3.9595,8.3127,-0.9261,1.5828,0.1692
1764313218650,0.9362,3.9595,8.3127,0.2263,-0.3219,0.0046
1764313218660,0.8853,3.2321,9.2536,0.2263,-0.3219,0.0046
1764313218670,0.8853,3.2321,9.2536,0.2263,-0.3219,0.0046
1764313218680,0.8853,3.2321,9.2536,0.989,-1.0968,0.0681
1764313218690,1.4118,3.1998,8.6871,0.989,-1.0968,0.0681
1764313218700,1.4118,3.1998,8.6871,0.8454,-0.6967,0.2686
1764313218710,2.1428,3.6132,8.1517,0.8454,-0.6967,0.2686
1764313218720,2.1428,3.6132,8.1517,0.2378,0.1578,0.4155
1764313218730,2.5729,4.0822,7.9286,0.2378,0.1578,0.4155
1764313218740,2.5729,4.0822,7.9286,-0.2428,0.638,0.427
1764313218750,2.5902,4.4973,8.333,-0.2428,0.638,0.427
1764313218760,2.5902,4.4973,8.333,-0.279,0.5006,0.2868
1764313218770,2.348,4.4572,8.7099,-0.279,0.5006,0.2868
1764313218780,2.348,4.4572,8.7099,0.022,-0.0539,0.1226
1764313218790,2.348,4.4572,8.7099,0.022,-0.0539,0.1226
1764313218800,2.1476,4.2269,9.1753,0.022,-0.0539,0.1226
1764313218810,2.1141,3.798,8.9408,0.3155,-0.3545,0.0869
1764313218820,2.1141,3.798,8.9408,0.3155,-0.3545,0.0869
1764313218830,2.1141,3.798,8.9408,0.2724,-0.0796,0.1822
1764313218840,2.549,4.27,8.5789,0.2724,-0.0796,0.1822
1764313218850,2.549,4.27,8.5789,-0.0287,0.2332,0.2543
1764313218860,2.8732,4.5051,8.5268,-0.0287,0.2332,0.2543
1764313218870,2.8732,4.5051,8.5268,-0.1497,0.3586,0.1203
1764313218880,2.5412,4.3633,8.3306,-0.1497,0.3586,0.1203
1764313218890,2.5412,4.3633,8.3306,-0.0405,0.0673,-0.0186
1764313218900,2.1344,4.1378,8.6447,-0.0405,0.0673,-0.0186
1764313218910,2.1344,4.1378,8.6447,0.1122,-0.1875,-0.0536
1764313218920,2.0847,3.9757,8.8642,0.1122,-0.1875,-0.0536
1764313218930,2.0847,3.9757,8.8642,0.1122,-0.1875,-0.0536
1764313218940,2.0847,3.9757,8.8642,0.1607,-0.1781,-0.0451
1764313218950,2.1404,4.0247,8.7852,0.1607,-0.1781,-0.0451
1764313218960,2.1404,4.0247,8.7852,0.0622,-0.0055,-0.0214
1764313218970,1.9322,4.0074,8.4048,0.0622,-0.0055,-0.0214
1764313218980,1.9322,4.0074,8.4048,-0.0657,0.1371,-0.0011
1764313218990,1.7103,4.1378,8.0752,-0.0657,0.1371,-0.0011
1764313219000,1.7103,4.1378,8.0752,-0.1759,0.0959,0.0131
1764313219010,1.7982,3.9111,8.601,-0.1759,0.0959,0.0131
1764313219020,1.7982,3.9111,8.601,-0.1765,0.1057,0.0283
1764313219030,1.748,3.8028,8.5155,-0.1765,0.1057,0.0283
1764313219040,1.748,3.8028,8.5155,-0.1194,0.0673,0.0446
1764313219050,1.7575,3.9661,8.0638,-0.1194,0.0673,0.0446
1764313219060,1.7575,3.9661,8.0638,-0.1729,-0.0785,0.0437
1764313219070,2.4359,4.2431,8.3192,-0.1729,-0.0785,0.0437
1764313219080,2.4359,4.2431,8.3192,-0.1729,-0.0785,0.0437
1764313219090,2.4359,4.2431,8.3192,-0.3173,-0.056,-0.0377
1764313219100,2.857,4.1767,9.1567,-0.3173,-0.056,-0.0377
1764313219110,2.857,4.1767,9.1567,-0.4148,0.2318,-0.1538
1764313219120,2.4628,3.8776,9.7645,-0.4148,0.2318,-0.1538
1764313219130,2.4628,3.8776,9.7645,-0.3732,0.4604,-0.1526
1764313219140,1.879,3.6742,9.5647,-0.3732,0.4604,-0.1526
1764313219150,1.879,3.6742,9.5647,-0.2592,0.4788,-0.0996
1764313219160,1.3765,3.4828,8.9605,-0.2592,0.4788,-0.0996
1764313219170,1.3765,3.4828,8.9605,-0.1585,0.2239,-0.024
1764313219180,1.2586,3.4343,8.8373,-0.1585,0.2239,-0.024
1764313219190,1.2586,3.4343,8.8373,-0.1585,0.2239,-0.024
1764313219200,1.8377,3.5749,9.6365,-0.1003,-0.0492,0.0315
1764313219210,1.8377,3.5749,9.6365,-0.1003,-0.0492,0.0315
1764313219220,2.184,3.5641,10.1103,0.0032,-0.0278,-0.0014
1764313219230,2.184,3.5641,10.1103,0.0032,-0.0278,-0.0014
1764313219240,2.184,3.5641,10.1103,0.087,0.2188,-0.087
1764313219250,1.6475,3.5785,9.6832,0.087,0.2188,-0.087
1764313219260,1.6475,3.5785,9.6832,0.0944,0.3435,-0.087
1764313219270,1.0899,3.6197,9.1358,0.0944,0.3435,-0.087
1764313219280,1.0899,3.6197,9.1358,0.1098,0.1411,-0.0467
1764313219290,1.069,3.6168,9.1872,0.1098,0.1411,-0.0467
1764313219300,1.069,3.6168,9.1872,0.2552,-0.1794,-0.026
1764313219310,1.3908,3.6072,9.4074,0.2552,-0.1794,-0.026
1764313219320,1.3908,3.6072,9.4074,0.3803,-0.274,-0.0411
1764313219330,1.6702,3.6975,9.3571,0.3803,-0.274,-0.0411
1764313219340,1.6702,3.6975,9.3571,0.3803,-0.274,-0.0411
1764313219350,1.3196,3.4744,8.9426,0.4462,-0.2074,-0.0802
1764313219360,1.3196,3.4744,8.9426,0.4462,-0.2074,-0.0802
1764313219370,1.3196,3.4744,8.9426,0.487,-0.0857,-0.0409
1764313219380,0.7621,3.6144,8.2857,0.487,-0.0857,-0.0409
1764313219390,0.7621,3.6144,8.2857,0.4765,-0.263,0.1226
1764313219400,1.1833,3.9326,8.1595,0.4765,-0.263,0.1226
1764313219410,1.1833,3.9326,8.1595,0.5302,-0.5996,0.1634
1764313219420,1.386,3.9015,8.7577,0.5302,-0.5996,0.1634
1764313219430,1.386,3.9015,8.7577,0.7324,-0.8476,0.2005
1764313219440,1.5111,3.8782,8.8582,0.7324,-0.8476,0.2005
1764313219450,1.5111,3.8782,8.8582,0.9985,-1.1999,0.2611
1764313219460,1.6271,3.8608,8.7159,0.9985,-1.1999,0.2611
1764313219470,1.6271,3.8608,8.7159,0.9985,-1.1999,0.2611
1764313219480,2.1428,4.1557,8.723,1.1747,-1.3367,0.3236
1764313219490,2.1428,4.1557,8.723,1.1747,-1.3367,0.3236
1764313219500,2.1428,4.1557,8.723,0.9186,-0.6718,0.4928
1764313219510,4.2897,4.9328,10.4614,0.9186,-0.6718,0.4928
1764313219520,4.2897,4.9328,10.4614,-0.3079,2.467,0.7439
1764313219530,9.5222,7.4303,12.4983,-0.3079,2.467,0.7439
1764313219540,9.5222,7.4303,12.4983,-3.3152,9.1621,0.4158
1764313219550,11.8062,8.9874,12.0963,-3.3152,9.1621,0.4158
1764313219560,11.8062,8.9874,12.0963,-6.5453,16.4338,-0.3684
1764313219570,8.1577,7.6714,7.8885,-6.5453,16.4338,-0.3684
1764313219580,8.1577,7.6714,7.8885,-7.2416,19.1082,-0.8835
1764313219590,-0.3876,3.8124,1.3956,-7.2416,19.1082,-0.8835
1764313219600,-0.3876,3.8124,1.3956,-4.3755,14.0725,-0.9036
1764313219610,-8.1691,1.9537,-3.4343,-4.3755,14.0725,-0.9036
1764313219620,-8.1691,1.9537,-3.4343,-4.3755,14.0725,-0.9036
1764313219630,-8.1691,1.9537,-3.4343,-0.1593,4.4538,-1.2439
1764313219640,-12.3745,-0.5695,-3.8255,-0.1593,4.4538,-1.2439
1764313219650,-12.3745,-0.5695,-3.8255,2.0049,-2.3923,-0.9694
1764313219660,-10.2634,-2.3133,1.5876,2.0049,-2.3923,-0.9694
1764313219670,-10.2634,-2.3133,1.5876,1.2315,-2.5789,-0.186
1764313219680,-6.6455,-0.335,5.0297,1.2315,-2.5789,-0.186
1764313219690,-6.6455,-0.335,5.0297,-0.2004,-0.4018,-0.1345
1764313219700,-6.2548,0.8961,4.8275,-0.2004,-0.4018,-0.1345
1764313219710,-6.2548,0.8961,4.8275,-0.5527,-0.0828,-0.5806
1764313219720,-8.196,0.1944,4.8227,-0.5527,-0.0828,-0.5806
1764313219730,-8.196,0.1944,4.8227,-0.0669,-1.1982,-0.8331
1764313219740,-10.3717,-0.9619,5.0853,-0.0669,-1.1982,-0.8331
1764313219750,-10.3717,-0.9619,5.0853,-0.0669,-1.1982,-0.8331
1764313219760,-10.8479,-1.4967,4.3119,0.544,-2.5,-0.6136
1764313219770,-10.8479,-1.4967,4.3119,0.544,-2.5,-0.6136
1764313219780,-10.8479,-1.4967,4.3119,1.0673,-4.2916,-0.2054
1764313219790,-9.4056,-0.9332,4.4973,1.0673,-4.2916,-0.2054
1764313219800,-9.4056,-0.9332,4.4973,1.8056,-6.6696,-0.0304
1764313219810,-6.119,-0.0508,6.7364,1.8056,-6.6696,-0.0304
1764313219820,-6.119,-0.0508,6.7364,2.8827,-8.9843,-0.2088
1764313219830,-2.9127,1.0558,10.8844,2.8827,-8.9843,-0.2088
1764313219840,-2.9127,1.0558,10.8844,4.0064,-9.8746,-0.4991
1764313219850,-1.2329,1.5159,12.926,4.0064,-9.8746,-0.4991
1764313219860,-1.2329,1.5159,12.926,4.4083,-9.0312,-0.556
1764313219870,-0.6269,1.9555,13.0953,4.4083,-9.0312,-0.556
1764313219880,-0.6269,1.9555,13.0953,4.4083,-9.0312,-0.556
1764313219890,0.8249,3.064,11.8002,4.133,-6.8927,-0.2349
1764313219900,0.8249,3.064,11.8002,4.133,-6.8927,-0.2349
1764313219910,0.8249,3.064,11.8002,3.1059,-3.862,0.2112
1764313219920,2.68,4.4447,10.0941,3.1059,-3.862,0.2112
1764313219930,2.68,4.4447,10.0941,1.3328,-0.2323,0.4378
1764313219940,3.2506,5.2558,6.8943,1.3328,-0.2323,0.4378
1764313219950,3.2506,5.2558,6.8943,-0.3735,1.8906,0.3554
1764313219960,2.1523,5.1362,5.8253,-0.3735,1.8906,0.3554
1764313219970,2.1523,5.1362,5.8253,-0.7821,1.483,0.1165
1764313219980,0.7501,4.5015,7.0475,-0.7821,1.483,0.1165
1764313219990,0.7501,4.5015,7.0475,0.0544,-0.1457,0.0092
1764313220000,0.6568,3.8363,8.522,0.0544,-0.1457,0.0092
1764313220010,0.6568,3.8363,8.522,0.7285,-0.8977,0.0502
1764313220020,1.011,3.4804,8.7541,0.7285,-0.8977,0.0502
1764313220030,1.011,3.4804,8.7541,0.7285,-0.8977,0.0502
1764313220040,1.011,3.4804,8.7541,0.6576,-0.5195,0.2301
1764313220050,1.7838,3.9254,8.254,0.6576,-0.5195,0.2301
1764313220060,1.7838,3.9254,8.254,0.2153,0.0284,0.2912
1764313220070,2.0112,4.4919,8.2074,0.2153,0.0284,0.2912
1764313220080,2.0112,4.4919,8.2074,-0.0454,0.1553,0.2025
1764313220090,2.1332,4.6516,8.7206,-0.0454,0.1553,0.2025
1764313220100,2.1332,4.6516,8.7206,0.0362,0.0333,0.0249
1764313220110,1.2664,4.1719,9.664,0.0362,0.0333,0.0249
1764313220120,1.2664,4.1719,9.664,0.3134,0.2075,0.018
1764313220130,0.2327,3.7675,8.799,0.3134,0.2075,0.018
1764313220140,0.2327,3.7675,8.799,0.3134,0.2075,0.018
1764313220150,0.2327,3.7675,8.799,0.2854,0.3187,0.4519
1764313220160,0.786,4.2018,7.7683,0.2854,0.3187,0.4519
1764313220170,2.7218,4.9693,8.2762,-0.0299,0.3329,0.6949
1764313220180,2.7218,4.9693,8.2762,-0.0299,0.3329,0.6949
1764313220190,2.7218,4.9693,8.2762,-0.1996,0.4392,0.4627
1764313220200,3.4696,5.4335,9.134,-0.1996,0.4392,0.4627
1764313220210,3.4696,5.4335,9.134,-0.1495,0.5455,0.0189
1764313220220,2.4491,4.9591,9.0897,-0.1495,0.5455,0.0189
1764313220230,2.4491,4.9591,9.0897,-0.0452,0.5611,-0.1816
1764313220240,1.2508,4.5547,8.5747,-0.0452,0.5611,-0.1816
1764313220250,1.2508,4.5547,8.5747,-0.0217,0.4615,-0.14
1764313220260,0.7131,4.3292,8.3079,-0.0217,0.4615,-0.14
1764313220270,0.7131,4.3292,8.3079,-0.0315,0.3068,-0.0348
1764313220280,0.6712,4.3226,8.0004,-0.0315,0.3068,-0.0348
1764313220290,0.6712,4.3226,8.0004,-0.0315,0.3068,-0.0348
1764313220300,0.9697,4.3657,8.3845,-0.0232,0.017,0.0188
1764313220310,0.9697,4.3657,8.3845,-0.0232,0.017,0.0188
1764313220320,0.9697,4.3657,8.3845,-0.0339,-0.1701,-0.0137
1764313220330,1.3238,4.2048,9.4343,-0.0339,-0.1701,-0.0137
1764313220340,1.3238,4.2048,9.4343,0.0606,-0.0625,-0.0751
1764313220350,1.0181,4.2221,8.8534,0.0606,-0.0625,-0.0751
1764313220360,1.0181,4.2221,8.8534,0.1,-0.0446,-0.1029
1764313220370,0.4463,4.1844,8.3336,0.1,-0.0446,-0.1029
1764313220380,0.4463,4.1844,8.3336,0.0324,-0.0956,-0.0504
1764313220390,0.3045,4.1366,8.2295,0.0324,-0.0956,-0.0504
1764313220400,0.3045,4.1366,8.2295,-0.0066,-0.1848,0.0405
1764313220410,0.6353,4.3101,8.123,-0.0066,-0.1848,0.0405
1764313220420,0.6353,4.3101,8.123,-0.0066,-0.1848,0.0405
1764313220430,0.6353,4.3101,8.123,-0.099,-0.2489,0.0486
1764313220440,1.3083,4.4064,8.9234,-0.099,-0.2489,0.0486
1764313220450,1.3083,4.4064,8.9234,-0.1199,-0.2117,-0.0382
1764313220460,1.5661,4.1174,9.8788,-0.1199,-0.2117,-0.0382
1764313220470,1.5661,4.1174,9.8788,-0.0224,0.0964,-0.0533
1764313220480,1.2203,3.9787,9.5581,-0.0224,0.0964,-0.0533
1764313220490,1.2203,3.9787,9.5581,0.0513,0.1561,0.0038
1764313220500,0.9763,4.2832,9.3577,0.0513,0.1561,0.0038
1764313220510,0.9763,4.2832,9.3577,0.2083,0.0107,0.0111
1764313220520,1.1019,4.4076,9.0209,0.2083,0.0107,0.0111
1764313220530,1.1019,4.4076,9.0209,0.3244,-0.1924,-0.0186
1764313220540,1.1689,4.5117,8.9653,0.3244,-0.1924,-0.0186
1764313220550,1.1689,4.5117,8.9653,0.359,-0.2132,-0.0202
1764313220560,1.3992,4.4955,8.9288,0.359,-0.2132,-0.0202
1764313220570,1.3992,4.4955,8.9288,0.359,-0.2132,-0.0202
1764313220580,1.3992,4.4955,8.9288,0.3323,-0.0906,-0.0362
1764313220590,1.7916,4.6624,9.0891,0.3323,-0.0906,-0.0362
1764313220600,1.7916,4.6624,9.0891,0.2987,0.172,-0.1118
1764313220610,1.5852,4.8084,8.6237,0.2987,0.172,-0.1118
1764313220620,1.5852,4.8084,8.6237,0.2395,0.2417,-0.1846
1764313220630,1.1073,4.7635,8.3432,0.2395,0.2417,-0.1846
1764313220640,1.1073,4.7635,8.3432,0.2503,0.0528,-0.1778
1764313220650,0.8722,4.6642,8.6351,0.2503,0.0528,-0.1778
1764313220660,0.8722,4.6642,8.6351,0.3737,-0.1799,-0.1359
1764313220670,1.0654,4.6546,8.7613,0.3737,-0.1799,-0.1359
1764313220680,1.0654,4.6546,8.7613,0.4751,-0.2611,-0.1303
1764313220690,0.9206,4.6995,8.2965,0.4751,-0.2611,-0.1303
1764313220700,0.9206,4.6995,8.2965,0.4751,-0.2611,-0.1303
1764313220710,0.533,4.8778,7.8885,0.4345,-0.2104,-0.0944
1764313220720,0.533,4.8778,7.8885,0.4345,-0.2104,-0.0944
1764313220730,0.533,4.8778,7.8885,0.3363,-0.2963,0.0298
1764313220740,0.6317,4.7438,7.8724,0.3363,-0.2963,0.0298
1764313220750,0.6317,4.7438,7.8724,0.4088,-0.6461,0.1116
1764313220760,0.6748,4.6708,8.3145,0.4088,-0.6461,0.1116
1764313220770,0.6748,4.6708,8.3145,0.6274,-0.9015,0.168
1764313220780,1.0995,4.8718,8.4718,0.6274,-0.9015,0.168
1764313220790,1.0995,4.8718,8.4718,0.6361,-0.6716,0.2059
1764313220800,1.6971,5.2911,8.0991,0.6361,-0.6716,0.2059
1764313220810,1.6971,5.2911,8.0991,0.2915,0.0429,0.2289
1764313220820,2.9444,5.7745,8.881,0.2915,0.0429,0.2289
1764313220830,2.9444,5.7745,8.881,0.2915,0.0429,0.2289
1764313220840,2.9444,5.7745,8.881,-0.7115,2.3309,0.2363
1764313220850,6.99,7.4285,11.5687,-0.7115,2.3309,0.2363
1764313220860,6.99,7.4285,11.5687,-2.9289,7.5704,-0.1272
1764313220870,11.5179,8.881,12.8626,-2.9289,7.5704,-0.1272
1764313220880,11.5179,8.881,12.8626,-5.4689,14.4234,-1.1539
1764313220890,11.8385,8.7404,9.0335,-5.4689,14.4234,-1.1539
1764313220900,11.8385,8.7404,9.0335,-6.176,18.5152,-2.4221
1764313220910,4.3837,5.6375,-1.2712,-6.176,18.5152,-2.4221
1764313220920,4.3837,5.6375,-1.2712,-4.0253,15.0787,-3.0505
1764313220930,-8.0195,3.0377,-11.659,-4.0253,15.0787,-3.0505
1764313220940,-8.0195,3.0377,-11.659,-0.6802,4.5992,-3.1015
1764313220950,-15.3847,-1.7868,-9.5964,-0.6802,4.5992,-3.1015
1764313220960,-15.3847,-1.7868,-9.5964,-0.6802,4.5992,-3.1015
1764313220970,-13.3902,-5.339,4.3866,1.0889,-3.7034,-2.1367
1764313220980,-13.3902,-5.339,4.3866,1.0889,-3.7034,-2.1367
1764313220990,-13.3902,-5.339,4.3866,0.8519,-3.7179,-0.429
1764313221000,-8.5167,-3.079,9.1837,0.8519,-3.7179,-0.429
1764313221010,-8.5167,-3.079,9.1837,0.102,-1.1429,0.1035
1764313221020,-6.7591,0.3559,6.8291,0.102,-1.1429,0.1035
1764313221030,-6.7591,0.3559,6.8291,-0.0542,-0.7393,-0.4922
1764313221040,-9.3619,0.0634,5.0985,-0.0542,-0.7393,-0.4922
1764313221050,-9.3619,0.0634,5.0985,0.276,-1.9424,-0.702
1764313221060,-11.0895,-0.932,4.5835,0.276,-1.9424,-0.702
1764313221070,-11.0895,-0.932,4.5835,0.9552,-4.0198,-0.4111
1764313221080,-10.6517,-1.1468,5.6363,0.9552,-4.0198,-0.4111
1764313221090,-10.6517,-1.1468,5.6363,0.9552,-4.0198,-0.4111
1764313221100,-8.3097,-0.3888,6.9517,2.1672,-6.5097,-0.0857
1764313221110,-8.3097,-0.3888,6.9517,2.1672,-6.5097,-0.0857
1764313221120,-8.3097,-0.3888,6.9517,3.3613,-8.6508,0.0319
1764313221130,-5.2319,0.5803,8.3091,3.3613,-8.6508,0.0319
1764313221140,-5.2319,0.5803,8.3091,4.0899,-9.8688,0.0087
1764313221150,-1.8646,1.6546,11.1045,4.0899,-9.8688,0.0087
1764313221160,-1.8646,1.6546,11.1045,4.5175,-9.4357,-0.0886
1764313221170,0.0203,2.54,12.5181,4.5175,-9.4357,-0.0886
1764313221180,0.0203,2.54,12.5181,4.2063,-7.2665,0.0237
1764313221190,1.5619,3.3165,12.7262,4.2063,-7.2665,0.0237
1764313221200,1.5619,3.3165,12.7262,3.0395,-3.5754,0.328
1764313221210,2.9575,4.4925,10.1037,3.0395,-3.5754,0.328
1764313221220,2.9575,4.4925,10.1037,0.9916,0.5621,0.4898
1764313221230,2.3916,4.9837,6.0664,0.9916,0.5621,0.4898
1764313221240,2.3916,4.9837,6.0664,0.9916,0.5621,0.4898
1764313221250,2.3916,4.9837,6.0664,-0.8703,2.6667,0.4522
1764313221260,1.0564,4.94,4.9196,-0.8703,2.6667,0.4522
1764313221270,1.0564,4.94,4.9196,-1.2234,1.8952,0.2381
1764313221280,0.201,4.5398,6.4911,-1.2234,1.8952,0.2381
1764313221290,0.201,4.5398,6.4911,-0.3096,-0.0353,-0.0081
1764313221300,0.0538,3.7699,8.7182,-0.3096,-0.0353,-0.0081
1764313221310,0.0538,3.7699,8.7182,0.4951,-0.8807,-0.0228
1764313221320,0.384,3.2291,9.2255,0.4951,-0.8807,-0.0228
1764313221330,0.384,3.2291,9.2255,0.489,-0.5027,0.2057
1764313221340,1.2837,3.7693,8.7386,0.489,-0.5027,0.2057
1764313221350,1.2837,3.7693,8.7386,0.0195,0.168,0.287
1764313221360,1.6618,4.5733,8.5268,0.0195,0.168,0.287
1764313221370,1.6618,4.5733,8.5268,0.0195,0.168,0.287
1764313221380,1.3274,4.7139,9.0437,-0.3117,0.3754,0.1561
1764313221390,1.3274,4.7139,9.0437,-0.3117,0.3754,0.1561
1764313221400,1.3274,4.7139,9.0437,-0.3068,0.2899,0.0246
1764313221410,0.2662,4.2018,9.6909,-0.3068,0.2899,0.0246
1764313221420,0.2662,4.2018,9.6909,-0.157,0.3063,0.1084
1764313221430,-0.0832,3.6867,9.399,-0.157,0.3063,0.1084
1764313221440,-0.0832,3.6867,9.399,-0.0224,0.0425,0.3134
1764313221450,0.4439,3.932,9.7902,-0.0224,0.0425,0.3134
1764313221460,0.4439,3.932,9.7902,0.2816,-0.2074,0.3618
1764313221470,1.0421,3.9464,9.3099,0.2816,-0.2074,0.3618
1764313221480,1.0421,3.9464,9.3099,0.5027,-0.436,0.2863
1764313221490,1.4596,4.3681,9.0766,0.5027,-0.436,0.2863
1764313221500,1.4596,4.3681,9.0766,0.5027,-0.436,0.2863
1764313221510,1.4453,4.4016,8.6698,0.5037,-0.412,0.1658
1764313221520,1.4453,4.4016,8.6698,0.5037,-0.412,0.1658
1764313221530,1.4453,4.4016,8.6698,0.3905,-0.2628,0.0634
1764313221540,1.1025,4.5529,8.3623,0.3905,-0.2628,0.0634
1764313221550,1.1025,4.5529,8.3623,0.2674,-0.1492,0.0319
1764313221560,1.1043,4.4172,8.3749,0.2674,-0.1492,0.0319
1764313221570,1.1043,4.4172,8.3749,0.1237,0.0803,0.082
1764313221580,0.9176,4.4297,7.6534,0.1237,0.0803,0.082
1764313221590,0.9176,4.4297,7.6534,-0.0415,0.0915,0.1025
1764313221600,0.8315,4.5643,7.3902,-0.0415,0.0915,0.1025
1764313221610,0.8315,4.5643,7.3902,-0.1703,-0.071,0.1031
1764313221620,1.209,4.4734,8.0195,-0.1703,-0.071,0.1031
1764313221630,1.209,4.4734,8.0195,-0.2257,-0.1142,0.0518
1764313221640,1.3956,4.3472,8.1978,-0.2257,-0.1142,0.0518
1764313221650,1.3956,4.3472,8.1978,-0.2257,-0.1142,0.0518
1764313221660,1.3956,4.3472,8.1978,-0.2905,-0.0919,-0.0296
1764313221670,1.3675,4.2939,8.8259,-0.2905,-0.0919,-0.0296
1764313221680,1.3675,4.2939,8.8259,-0.3454,-0.0321,-0.0817
1764313221690,1.3382,4.0564,9.6861,-0.3454,-0.0321,-0.0817
1764313221700,1.3382,4.0564,9.6861,-0.3002,0.1953,-0.0776
1764313221710,1.139,4.1174,9.8267,-0.3002,0.1953,-0.0776
1764313221720,1.139,4.1174,9.8267,-0.2167,0.212,-0.0719
1764313221730,1.066,4.0325,10.1234,-0.2167,0.212,-0.0719
1764313221740,1.066,4.0325,10.1234,0.0199,0.0979,-0.0594
1764313221750,0.8076,4.0038,9.6574,0.0199,0.0979,-0.0594
1764313221760,0.8076,4.0038,9.6574,0.2011,-0.1248,-0.0392
1764313221770,0.804,4.0247,9.4708,0.2011,-0.1248,-0.0392
1764313221780,0.804,4.0247,9.4708,0.2011,-0.1248,-0.0392
1764313221790,0.9123,4.0391,9.2853,0.2691,-0.2098,0.0115
1764313221800,0.9123,4.0391,9.2853,0.2691,-0.2098,0.0115
1764313221810,0.9123,4.0391,9.2853,0.2639,-0.1115,0.0493
1764313221820,1.0319,4.1025,9.0239,0.2639,-0.1115,0.0493
1764313221830,1.0319,4.1025,9.0239,0.2552,-0.0817,0.0559
1764313221840,1.1791,4.2102,8.8008,0.2552,-0.0817,0.0559
1764313221850,1.1791,4.2102,8.8008,0.2537,-0.0883,0.0206
1764313221860,1.3131,4.4459,8.4927,0.2537,-0.0883,0.0206
1764313221870,1.3131,4.4459,8.4927,0.1901,-0.0974,-0.0499
1764313221880,0.9876,4.4016,8.4832,0.1901,-0.0974,-0.0499
1764313221890,0.9876,4.4016,8.4832,0.121,-0.0238,-0.0556
1764313221900,0.9918,4.2054,8.9366,0.121,-0.0238,-0.0556
1764313221910,0.9918,4.2054,8.9366,0.121,-0.0238,-0.0556
1764313221920,1.1503,4.3041,8.8499,0.1472,0.0377,-0.0247
1764313221930,1.1503,4.3041,8.8499,0.1472,0.0377,-0.0247
1764313221940,1.1503,4.3041,8.8499,0.2356,-0.0316,-0.06
1764313221950,1.2604,4.4907,8.4646,0.2356,-0.0316,-0.06
1764313221960,1.2604,4.4907,8.4646,0.3245,-0.2593,-0.1352
1764313221970,1.0875,4.4668,8.5077,0.3245,-0.2593,-0.1352
1764313221980,1.0875,4.4668,8.5077,0.3648,-0.403,-0.1553
1764313221990,0.9511,4.3675,8.7835,0.3648,-0.403,-0.1553
1764313222000,0.9511,4.3675,8.7835,0.4165,-0.469,-0.1127
1764313222010,1.1689,4.483,8.7846,0.4165,-0.469,-0.1127
1764313222020,1.1689,4.483,8.7846,0.4878,-0.5353,-0.0932
1764313222030,0.5061,4.4554,8.601,0.4878,-0.5353,-0.0932
1764313222040,0.5061,4.4554,8.601,0.4878,-0.5353,-0.0932
1764313222050,-0.0784,4.4088,7.6487,0.5994,-0.5027,0.0131
1764313222060,-0.0784,4.4088,7.6487,0.5994,-0.5027,0.0131
1764313222070,-0.0784,4.4088,7.6487,0.5334,-0.6286,0.3031
1764313222080,0.6251,4.4794,7.127,0.5334,-0.6286,0.3031
1764313222090,0.6251,4.4794,7.127,0.3844,-0.8916,0.4165
1764313222100,1.8389,4.7186,8.0818,0.3844,-0.8916,0.4165
1764313222110,1.8389,4.7186,8.0818,0.4629,-1.0066,0.3439
1764313222120,2.2217,5.1625,8.1577,0.4629,-1.0066,0.3439
1764313222130,2.2217,5.1625,8.1577,0.7227,-1.3091,0.2335
1764313222140,2.1057,5.3839,7.9089,0.7227,-1.3091,0.2335
1764313222150,2.1057,5.3839,7.9089,0.8282,-1.4186,0.2315
1764313222160,2.473,5.4096,7.8449,0.8282,-1.4186,0.2315
1764313222170,2.473,5.4096,7.8449,0.4724,-0.8103,0.3512
1764313222180,3.9308,5.8146,9.064,0.4724,-0.8103,0.3512
1764313222190,3.9308,5.8146,9.064,0.4724,-0.8103,0.3512
1764313222200,3.9308,5.8146,9.064,-0.3928,1.2569,0.4339
1764313222210,6.3601,6.6981,10.922,-0.3928,1.2569,0.4339
1764313222220,6.3601,6.6981,10.922,-2.0966,5.5045,0.317
1764313222230,8.2074,7.462,11.1063,-2.0966,5.5045,0.317
1764313222240,8.2074,7.462,11.1063,-4.6313,11.4253,0.0695
1764313222250,8.8044,8.2152,8.3731,-4.6313,11.4253,0.0695
1764313222260,8.8044,8.2152,8.3731,-6.8292,16.2878,-0.5493
1764313222270,6.4379,7.4303,5.4114,-6.8292,16.2878,-0.5493
1764313222280,6.4379,7.4303,5.4114,-6.5298,16.889,-1.4725
1764313222290,-0.8267,3.6431,-0.4116,-6.5298,16.889,-1.4725
1764313222300,-0.8267,3.6431,-0.4116,-6.5298,16.889,-1.4725
1764313222310,-9.4421,1.1378,-5.4383,-3.2895,10.7758,-2.0699
1764313222320,-9.4421,1.1378,-5.4383,-3.2895,10.7758,-2.0699
1764313222330,-13.4172,-3.0257,-1.9334,0.3738,1.4633,-2.348
1764313222340,-13.4172,-3.0257,-1.9334,0.3738,1.4633,-2.348
1764313222350,-13.4172,-3.0257,-1.9334,1.4746,-3.2098,-1.4581
1764313222360,-10.8365,-3.8859,5.4616,1.4746,-3.2098,-1.4581
1764313222370,-10.8365,-3.8859,5.4616,0.2845,-1.5879,-0.4192
1764313222380,-7.6953,-1.5888,7.081,0.2845,-1.5879,-0.4192
1764313222390,-7.6953,-1.5888,7.081,-0.9646,0.6074,-0.383
1764313222400,-8.0321,-0.6353,7.1246,-0.9646,0.6074,-0.383
1764313222410,-8.0321,-0.6353,7.1246,-0.7115,0.4461,-0.7495
1764313222420,-10.4345,-1.404,7.1049,-0.7115,0.4461,-0.7495
1764313222430,-10.4345,-1.404,7.1049,0.3598,-0.8848,-0.7289
1764313222440,-11.7362,-1.8215,5.9593,0.3598,-0.8848,-0.7289
1764313222450,-11.7362,-1.8215,5.9593,0.3598,-0.8848,-0.7289
1764313222460,-11.7362,-1.8215,5.9593,0.9789,-2.0682,-0.2543
1764313222470,-11.0118,-1.517,4.7408,0.9789,-2.0682,-0.2543
1764313222480,-11.0118,-1.517,4.7408,1.1935,-3.2988,0.1785
1764313222490,-9.1998,-0.5665,4.0331,1.1935,-3.2988,0.1785
1764313222500,-9.1998,-0.5665,4.0331,1.7599,-5.599,0.2184
1764313222510,-6.9739,-0.0736,5.1846,1.7599,-5.599,0.2184
1764313222520,-6.9739,-0.0736,5.1846,2.8135,-8.4787,0.0133
1764313222530,-4.0373,0.0497,9.798,2.8135,-8.4787,0.0133
1764313222540,-4.0373,0.0497,9.798,4.3746,-10.3702,-0.212
1764313222550,-0.4845,1.2335,14.2229,4.3746,-10.3702,-0.212
1764313222560,-0.4845,1.2335,14.2229,5.7794,-10.1454,-0.5452
1764313222570,0.7627,2.586,14.5262,5.7794,-10.1454,-0.5452
1764313222580,0.7627,2.586,14.5262,5.7794,-10.1454,-0.5452
1764313222590,-0.0634,3.0179,10.4423,5.694,-7.5225,-0.6196
1764313222600,-0.0634,3.0179,10.4423,5.694,-7.5225,-0.6196
1764313222610,-0.0634,3.0179,10.4423,3.675,-3.6047,-0.0189
1764313222620,0.466,4.2532,6.548,3.675,-3.6047,-0.0189
1764313222630,0.466,4.2532,6.548,0.8083,0.2885,0.6057
1764313222640,1.6845,5.3061,5.1876,0.8083,0.2885,0.6057
1764313222650,1.6845,5.3061,5.1876,-1.1037,2.1997,0.6987
1764313222660,2.0016,5.2002,6.1783,-1.1037,2.1997,0.6987
1764313222670,2.0016,5.2002,6.1783,-1.109,1.5029,0.3609
1764313222680,1.4644,4.5876,8.6512,-1.109,1.5029,0.3609
1764313222690,1.4644,4.5876,8.6512,0.1083,0.0666,0.0017
1764313222700,0.3589,3.4522,9.1615,0.1083,0.0666,0.0017
1764313222710,0.3589,3.4522,9.1615,0.821,-0.5959,0.0383
1764313222720,0.0036,3.39,8.1356,0.821,-0.5959,0.0383
1764313222730,0.0036,3.39,8.1356,0.821,-0.5959,0.0383
1764313222740,0.0036,3.39,8.1356,0.6222,-0.427,0.3096
1764313222750,0.4582,3.8985,7.989,0.6222,-0.427,0.3096
1764313222760,0.4582,3.8985,7.989,0.1591,0.0487,0.5027
1764313222770,1.0756,4.4076,8.4191,0.1591,0.0487,0.5027
1764313222780,1.0756,4.4076,8.4191,-0.0165,0.1807,0.5174
1764313222790,1.3878,4.6594,8.5579,-0.0165,0.1807,0.5174
1764313222800,1.3878,4.6594,8.5579,0.0927,-0.111,0.4146
1764313222810,1.5679,4.6289,8.8265,0.0927,-0.111,0.4146
1764313222820,1.5679,4.6289,8.8265,0.0927,-0.111,0.4146
1764313222830,0.8949,4.6217,9.3523,0.2798,-0.4055,0.3047
1764313222840,0.8949,4.6217,9.3523,0.4323,-0.1871,0.3797
1764313222850,0.8614,4.1139,9.2495,0.4323,-0.1871,0.3797
1764313222860,0.8614,4.1139,9.2495,0.4323,-0.1871,0.3797
1764313222870,0.8614,4.1139,9.2495,0.2793,0.5079,0.7508
1764313222880,1.2461,4.6786,7.8838,0.2793,0.5079,0.7508
1764313222890,1.2461,4.6786,7.8838,-0.2937,0.8958,0.9511
1764313222900,2.2493,4.8419,8.0907,-0.2937,0.8958,0.9511
1764313222910,2.2493,4.8419,8.0907,-0.4549,0.892,0.7873
1764313222920,2.9833,5.1799,8.4688,-0.4549,0.892,0.7873
1764313222930,2.9833,5.1799,8.4688,-0.1614,0.4297,0.3664
1764313222940,2.4275,5.2307,8.3575,-0.1614,0.4297,0.3664
1764313222950,2.4275,5.2307,8.3575,0.1216,-0.1011,0.0669
1764313222960,1.5027,4.7665,8.2295,0.1216,-0.1011,0.0669
1764313222970,1.5027,4.7665,8.2295,0.1949,-0.3528,0.0432
1764313222980,1.4405,4.5595,8.4066,0.1949,-0.3528,0.0432
1764313222990,1.4405,4.5595,8.4066,0.1949,-0.3528,0.0432
1764313223000,1.4405,4.5595,8.4066,0.0904,-0.1927,0.0845
1764313223010,1.7581,4.617,8.5663,0.0904,-0.1927,0.0845
1764313223020,1.7581,4.617,8.5663,-0.0078,-0.0585,0.0287
1764313223030,1.9298,4.529,8.8953,-0.0078,-0.0585,0.0287
1764313223040,1.9298,4.529,8.8953,0.0582,-0.0434,-0.0845
1764313223050,1.6068,4.5069,8.7147,0.0582,-0.0434,-0.0845
1764313223060,1.6068,4.5069,8.7147,0.1115,-0.0828,-0.1688
1764313223070,1.2347,4.5111,8.7338,0.1115,-0.0828,-0.1688
1764313223080,1.2347,4.5111,8.7338,0.0948,-0.0641,-0.1669
1764313223090,1.1258,4.416,8.7404,0.0948,-0.0641,-0.1669
1764313223100,1.1258,4.416,8.7404,0.0423,0.048,-0.1078
1764313223110,1.0032,4.4602,8.4503,0.0423,0.048,-0.1078
1764313223120,1.0032,4.4602,8.4503,0.0423,0.048,-0.1078
1764313223130,0.8644,4.4237,8.4963,-0.0505,0.0612,-0.0594
1764313223140,0.8644,4.4237,8.4963,-0.0505,0.0612,-0.0594
1764313223150,0.8644,4.4237,8.4963,-0.0767,-0.0588,0.0396
1764313223160,1.0558,4.3442,8.9079,-0.0767,-0.0588,0.0396
1764313223170,1.0558,4.3442,8.9079,-0.029,-0.0528,0.0805
1764313223180,1.2939,4.334,9.3368,-0.029,-0.0528,0.0805
1764313223190,1.2939,4.334,9.3368,0.0977,-0.0333,0.0644
1764313223200,1.3723,4.2508,9.4678,0.0977,-0.0333,0.0644
1764313223210,1.3723,4.2508,9.4678,0.2637,0.0026,0.0426
1764313223220,1.3466,4.3089,8.9456,0.2637,0.0026,0.0426
1764313223230,1.3466,4.3089,8.9456,0.379,-0.1269,0.0388
1764313223240,1.1085,4.4255,8.3922,0.379,-0.1269,0.0388
1764313223250,1.1085,4.4255,8.3922,0.4242,-0.3089,0.084
1764313223260,1.1976,4.7695,8.1057,0.4242,-0.3089,0.084
1764313223270,1.1976,4.7695,8.1057,0.4242,-0.3089,0.084
1764313223280,1.1976,4.7695,8.1057,0.3661,-0.3822,0.1077
1764313223290,1.587,4.8,8.3145,0.3661,-0.3822,0.1077
1764313223300,1.587,4.8,8.3145,0.3114,-0.3338,0.0896
1764313223310,2.0518,4.9388,8.7111,0.3114,-0.3338,0.0896
1764313223320,2.0518,4.9388,8.7111,0.3488,-0.2494,0.0029
1764313223330,2.4227,5.1332,8.7948,0.3488,-0.2494,0.0029
1764313223340,2.4227,5.1332,8.7948,0.4108,-0.2098,-0.1208
1764313223350,2.0758,5.3252,8.3498,0.4108,-0.2098,-0.1208
1764313223360,2.0758,5.3252,8.3498,0.4389,-0.2674,-0.1961
1764313223370,1.7115,5.3803,7.9837,0.4389,-0.2674,-0.1961
1764313223380,1.7115,5.3803,7.9837,0.4148,-0.3711,-0.1973
1764313223390,1.456,5.3061,8.324,0.4148,-0.3711,-0.1973
1764313223400,1.456,5.3061,8.324,0.4148,-0.3711,-0.1973
1764313223410,1.456,5.3061,8.324,0.4458,-0.3656,-0.1513
1764313223420,1.2796,5.0566,8.1165,0.4458,-0.3656,-0.1513
1764313223430,1.2796,5.0566,8.1165,0.5359,-0.4664,-0.0223
1764313223440,1.185,4.8682,7.6857,0.5359,-0.4664,-0.0223
1764313223450,1.185,4.8682,7.6857,0.5994,-0.6962,0.1093
1764313223460,1.6193,4.9466,8.0082,0.5994,-0.6962,0.1093
1764313223470,1.6193,4.9466,8.0082,0.6344,-0.5829,0.2045
1764313223480,2.4437,5.074,8.1918,0.6344,-0.5829,0.2045
1764313223490,2.4437,5.074,8.1918,0.449,0.0706,0.2185
1764313223500,4.0726,5.6806,9.2106,0.449,0.0706,0.2185
1764313223510,4.0726,5.6806,9.2106,0.449,0.0706,0.2185
1764313223520,7.1462,7.2802,10.2556,-0.0909,1.8121,0.1294
1764313223530,7.1462,7.2802,10.2556,-0.0909,1.8121,0.1294
1764313223540,10.7115,8.7063,9.4295,-1.3551,5.3826,-0.379
1764313223550,10.7115,8.7063,9.4295,-1.3551,5.3826,-0.379
1764313223560,10.7115,8.7063,9.4295,-3.5332,10.7271,-1.2843
1764313223570,13.7779,10.1964,6.9278,-3.5332,10.7271,-1.2843
1764313223580,13.7779,10.1964,6.9278,-5.789,16.7374,-2.6185
1764313223590,10.7833,8.4293,0.195,-5.789,16.7374,-2.6185
1764313223600,10.7833,8.4293,0.195,-6.0696,18.1511,-3.7828
1764313223610,-0.4289,4.1701,-8.5693,-6.0696,18.1511,-3.7828
1764313223620,-0.4289,4.1701,-8.5693,-3.0409,10.5658,-4.0071
1764313223630,-13.4608,0.0335,-12.3386,-3.0409,10.5658,-4.0071
1764313223640,-13.4608,0.0335,-12.3386,0.5376,-0.3891,-3.5025
1764313223650,-17.074,-5.9689,-3.4122,0.5376,-0.3891,-3.5025
1764313223660,-17.074,-5.9689,-3.4122,0.5376,-0.3891,-3.5025
1764313223670,-11.8427,-5.7176,7.7085,1.3801,-4.9556,-1.5107
1764313223680,-11.8427,-5.7176,7.7085,1.3801,-4.9556,-1.5107
1764313223690,-11.8427,-5.7176,7.7085,0.1591,-2.3227,-0.1689
1764313223700,-7.2311,-1.4345,8.8247,0.1591,-2.3227,-0.1689
1764313223710,-7.2311,-1.4345,8.8247,-1.0006,0.545,-0.5866
1764313223720,-9.265,-0.7454,7.014,-1.0006,0.545,-0.5866
1764313223730,-9.265,-0.7454,7.014,-0.7752,0.4688,-1.0745
1764313223740,-12.329,-1.9525,6.3805,-0.7752,0.4688,-1.0745
1764313223750,-12.329,-1.9525,6.3805,0.1729,-0.9035,-0.9215
1764313223760,-13.2658,-2.4969,6.6263,0.1729,-0.9035,-0.9215
1764313223770,-13.2658,-2.4969,6.6263,0.1729,-0.9035,-0.9215
1764313223780,-12.4397,-2.0895,5.1398,0.7631,-1.4997,-0.3221
1764313223790,-12.4397,-2.0895,5.1398,0.7978,-1.9248,0.2485
1764313223800,-10.6128,-1.1994,4.349,0.7978,-1.9248,0.2485
1764313223810,-10.6128,-1.1994,4.349,0.7978,-1.9248,0.2485
1764313223820,-10.6128,-1.1994,4.349,0.9342,-3.043,0.4571
1764313223830,-9.3081,-0.7478,4.7809,0.9342,-3.043,0.4571
1764313223840,-9.3081,-0.7478,4.7809,1.4334,-4.7356,0.4917
1764313223850,-8.2277,-1.0702,5.6172,1.4334,-4.7356,0.4917
1764313223860,-8.2277,-1.0702,5.6172,2.2651,-6.8741,0.598
1764313223870,-6.4971,-0.8345,7.8676,2.2651,-6.8741,0.598
1764313223880,-6.4971,-0.8345,7.8676,3.5758,-8.8203,0.7097
1764313223890,-3.7089,0.4032,9.5492,3.5758,-8.8203,0.7097
1764313223900,-3.7089,0.4032,9.5492,4.7744,-9.6877,0.6774
1764313223910,-0.6544,1.5505,10.4937,4.7744,-9.6877,0.6774
1764313223920,-0.6544,1.5505,10.4937,5.1771,-8.8247,0.5553
1764313223930,0.6939,2.6931,10.005,5.1771,-8.8247,0.5553
1764313223940,0.6939,2.6931,10.005,5.1771,-8.8247,0.5553
1764313223950,1.2939,3.454,8.4209,4.7231,-6.8096,0.5246
1764313223960,1.2939,3.454,8.4209,4.7231,-6.8096,0.5246
1764313223970,1.2939,3.454,8.4209,3.7383,-4.5861,0.6782
1764313223980,2.2588,4.5547,7.2006,3.7383,-4.5861,0.6782
1764313223990,2.2588,4.5547,7.2006,2.3668,-2.018,0.8544
1764313224000,3.122,5.5382,5.3659,2.3668,-2.018,0.8544
1764313224010,3.122,5.5382,5.3659,0.9154,-0.1428,0.9291
1764313224020,4.0104,6.2548,4.9609,0.9154,-0.1428,0.9291
1764313224030,4.0104,6.2548,4.9609,0.9154,-0.1428,0.9291
1764313224040,3.9272,6.518,5.3061,-0.1393,0.9152,0.7442
1764313224050,3.9272,6.518,5.3061,-0.5125,0.9502,0.4665
1764313224060,3.1741,6.07,6.3488,-0.5125,0.9502,0.4665
1764313224070,3.1741,6.07,6.3488,-0.5125,0.9502,0.4665
1764313224080,2.7691,5.4251,7.5069,-0.3923,0.5537,0.3377
1764313224090,2.7691,5.4251,7.5069,-0.3923,0.5537,0.3377
1764313224100,2.7691,5.4251,7.5069,-0.1793,0.2813,0.4042
1764313224110,3.0993,5.2881,8.12,-0.1793,0.2813,0.4042
1764313224120,3.0993,5.2881,8.12,-0.0725,0.2624,0.4549
1764313224130,4.0074,5.537,8.3988,-0.0725,0.2624,0.4549
1764313224140,4.0074,5.537,8.3988,-0.0994,0.4763,0.3432
1764313224150,4.0804,5.7541,8.327,-0.0994,0.4763,0.3432
1764313224160,4.0804,5.7541,8.327,-0.2091,0.7144,0.1924
1764313224170,3.0179,5.5083,8.3001,-0.2091,0.7144,0.1924
1764313224180,3.0179,5.5083,8.3001,-0.2663,0.9471,0.1402
1764313224190,1.992,4.8012,7.7845,-0.2663,0.9471,0.1402
1764313224200,1.992,4.8012,7.7845,-0.2663,0.9471,0.1402
1764313224210,1.992,4.8012,7.7845,-0.2969,0.8978,0.2966
1764313224220,1.5966,5.1811,7.4512,-0.2969,0.8978,0.2966
1764313224230,1.5966,5.1811,7.4512,-0.2633,0.3931,0.4107
1764313224240,2.0399,4.7186,8.0243,-0.2633,0.3931,0.4107
1764313224250,2.0399,4.7186,8.0243,-0.044,0.0622,0.3899
1764313224260,2.4072,4.8209,8.4006,-0.044,0.0622,0.3899
1764313224270,2.4072,4.8209,8.4006,0.0733,0.0551,0.3096
1764313224280,2.3976,4.8718,8.3258,0.0733,0.0551,0.3096
1764313224290,2.3976,4.8718,8.3258,-0.0119,0.339,0.295
1764313224300,2.2002,4.7366,8.0722,-0.0119,0.339,0.295
1764313224310,2.2002,4.7366,8.0722,-0.336,0.9096,0.3748
1764313224320,1.9418,4.7779,7.9394,-0.336,0.9096,0.3748
1764313224330,1.9418,4.7779,7.9394,-0.6843,1.2769,0.4253
1764313224340,1.8329,4.7151,8.2409,-0.6843,1.2769,0.4253
1764313224350,1.8329,4.7151,8.2409,-0.6843,1.2769,0.4253
1764313224360,1.8329,4.7151,8.2409,-0.6663,1.0728,0.3749
1764313224370,1.6164,4.4716,8.8044,-0.6663,1.0728,0.3749
1764313224380,1.6164,4.4716,8.8044,-0.3464,0.6147,0.2865
1764313224390,1.2455,4.2449,9.3015,-0.3464,0.6147,0.2865
1764313224400,1.2455,4.2449,9.3015,0.0191,0.1807,0.2747
1764313224410,1.011,3.9338,9.4152,0.0191,0.1807,0.2747
1764313224420,1.011,3.9338,9.4152,0.2642,-0.049,0.3444
1764313224430,0.8776,3.9176,9.0293,0.2642,-0.049,0.3444
1764313224440,0.8776,3.9176,9.0293,0.3286,-0.1578,0.4453
1764313224450,1.0804,4.0648,8.9809,0.3286,-0.1578,0.4453
1764313224460,1.0804,4.0648,8.9809,0.3286,-0.1578,0.4453
1764313224470,1.5332,4.1145,9.5252,0.3241,-0.1614,0.5194
1764313224480,1.5332,4.1145,9.5252,0.3241,-0.1614,0.5194
1764313224490,2.126,4.3531,9.4193,0.3164,0.117,0.5719
1764313224500,2.126,4.3531,9.4193,0.3164,0.117,0.5719
1764313224510,2.126,4.3531,9.4193,0.2889,0.3777,0.5169
1764313224520,2.0369,4.5607,8.7781,0.2889,0.3777,0.5169
1764313224530,2.0369,4.5607,8.7781,0.3236,0.2909,0.4262
1764313224540,1.8359,4.5954,8.4879,0.3236,0.2909,0.4262
1764313224550,1.8359,4.5954,8.4879,0.4255,0.0113,0.3855
1764313224560,1.9095,4.4375,8.75,0.4255,0.0113,0.3855
1764313224570,1.9095,4.4375,8.75,0.5078,-0.0202,0.4065
1764313224580,1.9561,4.3777,8.6315,0.5078,-0.0202,0.4065
1764313224590,1.9561,4.3777,8.6315,0.4678,0.1345,0.4827
1764313224600,1.9926,4.4782,8.3635,0.4678,0.1345,0.4827
1764313224610,1.9926,4.4782,8.3635,0.4678,0.1345,0.4827
1764313224620,2.4024,4.7007,8.1966,0.368,0.3326,0.5475
1764313224630,2.4024,4.7007,8.1966,0.368,0.3326,0.5475
1764313224640,2.4024,4.7007,8.1966,0.2757,0.4372,0.5328
1764313224650,2.5412,5.0279,7.8849,0.2757,0.4372,0.5328
1764313224660,2.5412,5.0279,7.8849,0.2523,0.2886,0.4297
1764313224670,2.4138,5.0841,7.9567,0.2523,0.2886,0.4297
1764313224680,2.4138,5.0841,7.9567,0.2842,0.1118,0.3651
1764313224690,2.2349,4.873,8.2301,0.2842,0.1118,0.3651
1764313224700,2.2349,4.873,8.2301,0.272,0.1378,0.3719
1764313224710,2.1583,4.7988,8.2457,0.272,0.1378,0.3719
1764313224720,2.1583,4.7988,8.2457,0.1889,0.3031,0.4375
1764313224730,2.2905,4.9484,7.742,0.1889,0.3031,0.4375
1764313224740,2.2905,4.9484,7.742,0.1379,0.1142,0.4065
1764313224750,2.2493,4.8658,8.0112,0.1379,0.1142,0.4065
1764313224760,2.2493,4.8658,8.0112,0.1379,0.1142,0.4065
1764313224770,2.2493,4.8658,8.0112,0.3868,-0.4192,0.3109
1764313224780,2.0483,4.7013,8.327,0.3868,-0.4192,0.3109
1764313224790,2.0483,4.7013,8.327,0.7782,-1.0308,0.2686
1764313224800,2.1583,4.6911,8.1278,0.7782,-1.0308,0.2686
1764313224810,2.1583,4.6911,8.1278,1.027,-1.4536,0.2828
1764313224820,2.3958,4.9789,7.8832,1.027,-1.4536,0.2828
1764313224830,2.3958,4.9789,7.8832,1.1471,-1.7037,0.3271
1764313224840,2.9366,5.1589,7.9741,1.1471,-1.7037,0.3271
1764313224850,2.9366,5.1589,7.9741,1.2046,-1.616,0.3989
1764313224860,3.4965,5.333,7.5135,1.2046,-1.616,0.3989
1764313224870,3.4965,5.333,7.5135,1.0892,-1.2607,0.4136
1764313224880,3.4965,5.333,7.5135,1.0892,-1.2607,0.4136
1764313224890,3.7071,5.5675,6.7926,1.0892,-1.2607,0.4136
1764313224900,3.8064,5.8211,6.0616,0.8641,-0.9189,0.4249
1764313224910,3.8064,5.8211,6.0616,0.8641,-0.9189,0.4249
1764313224920,3.8064,5.8211,6.0616,0.6255,-0.7382,0.3896
1764313224930,4.0887,6.1125,5.7733,0.6255,-0.7382,0.3896
1764313224940,4.0887,6.1125,5.7733,0.491,-0.761,0.2779
1764313224950,4.3681,5.9928,6.5145,0.491,-0.761,0.2779
1764313224960,4.3681,5.9928,6.5145,0.4374,-0.4114,0.1419
1764313224970,3.7771,5.5322,7.5362,0.4374,-0.4114,0.1419
1764313224980,3.7771,5.5322,7.5362,0.2169,1.1385,0.3395
1764313224990,4.8491,5.7715,7.261,0.2169,1.1385,0.3395
1764313225000,4.8491,5.7715,7.261,-0.8948,3.5274,0.6103
1764313225010,7.5529,7.2251,8.9216,-0.8948,3.5274,0.6103
1764313225020,7.5529,7.2251,8.9216,-0.8948,3.5274,0.6103
1764313225030,11.6399,9.4277,10.3549,-2.999,7.7053,0.6235
1764313225040,11.6399,9.4277,10.3549,-2.999,7.7053,0.6235
1764313225050,11.6399,9.4277,10.3549,-5.8098,13.9022,-0.068
1764313225060,11.5143,9.2871,8.5519,-5.8098,13.9022,-0.068
1764313225070,11.5143,9.2871,8.5519,-7.4246,18.415,-1.0295
1764313225080,7.2969,7.0511,5.0411,-7.4246,18.415,-1.0295
1764313225090,7.2969,7.0511,5.0411,-6.254,17.9303,-1.7645
1764313225100,-1.7575,3.3422,-2.0465,-6.254,17.9303,-1.7645
1764313225110,-1.7575,3.3422,-2.0465,-2.6157,10.5255,-2.1037
1764313225120,-12.0072,1.054,-7.9573,-2.6157,10.5255,-2.1037
1764313225130,-12.0072,1.054,-7.9573,0.9635,0.2515,-2.0748
1764313225140,-14.7829,-3.0808,-3.1214,0.9635,0.2515,-2.0748
1764313225150,-14.7829,-3.0808,-3.1214,0.9635,0.2515,-2.0748
1764313225160,-10.5972,-4.0594,6.3918,1.7149,-4.5173,-0.8885
1764313225170,-10.5972,-4.0594,6.3918,1.7149,-4.5173,-0.8885
1764313225180,-10.5972,-4.0594,6.3918,0.706,-3.007,0.2381
1764313225190,-6.3236,-0.5486,8.211,0.706,-3.007,0.2381
1764313225200,-6.3236,-0.5486,8.211,-0.3476,-0.6897,0.0735
1764313225210,-6.9476,0.8489,6.5384,-0.3476,-0.6897,0.0735
1764313225220,-6.9476,0.8489,6.5384,-0.613,-0.478,-0.3769
1764313225230,-9.2507,0.1089,5.7667,-0.613,-0.478,-0.3769
1764313225240,-9.2507,0.1089,5.7667,-0.062,-1.9986,-0.3887
1764313225250,-10.4213,-0.9428,5.9515,-0.062,-1.9986,-0.3887
1764313225260,-10.4213,-0.9428,5.9515,0.8735,-4.0429,0.0231
1764313225270,-9.4851,-1.3795,6.3996,0.8735,-4.0429,0.0231
1764313225280,-9.4851,-1.3795,6.3996,0.8735,-4.0429,0.0231
1764313225290,-6.9631,-0.3368,7.2628,2.0601,-6.5275,0.3923
1764313225300,-6.9631,-0.3368,7.2628,2.0601,-6.5275,0.3923
1764313225310,-6.9631,-0.3368,7.2628,3.5067,-9.2992,0.4314
1764313225320,-3.7825,1.0098,9.2285,3.5067,-9.2992,0.4314
1764313225330,-3.7825,1.0098,9.2285,4.8607,-11.0502,0.3764
1764313225340,-0.9398,2.3067,9.5839,4.8607,-11.0502,0.3764
1764313225350,-0.9398,2.3067,9.5839,5.3771,-11.0789,0.3952
1764313225360,2.8558,3.2512,10.9753,5.3771,-11.0789,0.3952
1764313225370,2.8558,3.2512,10.9753,5.121,-9.1033,0.3028
1764313225380,5.3468,5.269,11.3976,5.121,-9.1033,0.3028
1764313225390,5.3468,5.269,11.3976,4.1603,-5.5074,0.047
1764313225400,5.4078,5.8594,8.4592,4.1603,-5.5074,0.047
1764313225410,5.4078,5.8594,8.4592,2.1686,-1.5004,0.1342
1764313225420,4.6086,6.1555,5.0327,2.1686,-1.5004,0.1342
1764313225430,4.6086,6.1555,5.0327,2.1686,-1.5004,0.1342
1764313225440,4.6086,6.1555,5.0327,-0.0535,1.5014,0.3574
1764313225450,3.8465,6.1621,3.5234,-0.0535,1.5014,0.3574
1764313225460,3.8465,6.1621,3.5234,-1.2682,2.2461,0.359
1764313225470,3.2955,5.5561,5.0728,-1.2682,2.2461,0.359
1764313225480,3.2955,5.5561,5.0728,-1.0886,1.2753,0.224
1764313225490,2.9432,4.8634,7.6032,-1.0886,1.2753,0.224
1764313225500,2.9432,4.8634,7.6032,-0.1141,0.1724,0.1924
1764313225510,3.0808,4.6744,8.3671,-0.1141,0.1724,0.1924
1764313225520,3.0808,4.6744,8.3671,0.566,-0.2404,0.2705
1764313225530,3.4995,4.797,7.596,0.566,-0.2404,0.2705
1764313225540,3.4995,4.797,7.596,0.4714,0.1489,0.4424
1764313225550,4.2843,5.2893,6.6245,0.4714,0.1489,0.4424
1764313225560,4.2843,5.2893,6.6245,0.4714,0.1489,0.4424
1764313225570,4.2843,5.2893,6.6245,-0.1332,0.7671,0.5052
1764313225580,4.6624,5.9115,6.5898,-0.1332,0.7671,0.5052
1764313225590,4.6624,5.9115,6.5898,-0.5446,0.9734,0.3696
1764313225600,4.3155,5.8845,7.4333,-0.5446,0.9734,0.3696
1764313225610,4.3155,5.8845,7.4333,-0.4717,0.7022,0.1642
1764313225620,3.7268,5.4108,8.1242,-0.4717,0.7022,0.1642
1764313225630,3.7268,5.4108,8.1242,-0.1381,0.2494,0.0249
1764313225640,3.5234,4.8299,8.8786,-0.1381,0.2494,0.0249
1764313225650,3.5234,4.8299,8.8786,0.0704,0.35,-0.0075
1764313225660,2.6501,4.7294,8.7685,0.0704,0.35,-0.0075
1764313225670,2.6501,4.7294,8.7685,0.0279,0.7524,0.2269
1764313225680,1.7216,3.8907,8.126,0.0279,0.7524,0.2269
1764313225690,1.7216,3.8907,8.126,0.0279,0.7524,0.2269
1764313225700,2.1547,4.9837,6.5815,-0.1113,1.1463,0.692
1764313225710,2.1547,4.9837,6.5815,-0.1113,1.1463,0.692
1764313225720,2.1547,4.9837,6.5815,-0.4432,0.9983,0.816
1764313225730,3.3547,5.3904,6.926,-0.4432,0.9983,0.816
1764313225740,3.3547,5.3904,6.926,-0.3564,0.2978,0.5389
1764313225750,3.9511,5.409,8.1374,-0.3564,0.2978,0.5389
1764313225760,3.9511,5.409,8.1374,0.1384,-0.3537,0.1275
1764313225770,3.5139,5.1093,8.1709,0.1384,-0.3537,0.1275
1764313225780,3.5139,5.1093,8.1709,0.3722,-0.5589,-0.0687
1764313225790,2.9928,4.7509,8.0219,0.3722,-0.5589,-0.0687
1764313225800,2.9928,4.7509,8.0219,0.2615,-0.3332,-0.0495
1764313225810,3.1567,4.6822,8.0195,0.2615,-0.3332,-0.0495
1764313225820,3.1567,4.6822,8.0195,0.2615,-0.3332,-0.0495
1764313225830,3.347,4.9352,7.7976,0.0841,-0.0067,0.0026
1764313225840,3.347,4.9352,7.7976,0.0841,-0.0067,0.0026
1764313225850,3.347,4.9352,7.7976,-0.0428,0.1066,-0.0409
1764313225860,3.2237,5.0315,7.9478,-0.0428,0.1066,-0.0409
1764313225870,3.2237,5.0315,7.9478,0.0031,-0.0021,-0.1098
1764313225880,3.1854,4.8784,8.2349,0.0031,-0.0021,-0.1098
1764313225890,3.1854,4.8784,8.2349,0.1234,-0.0935,-0.1526
1764313225900,3.2656,4.9513,8.4024,0.1234,-0.0935,-0.1526
1764313225910,3.2656,4.9513,8.4024,0.1865,-0.0145,-0.175
1764313225920,3.3583,5.1081,7.922,0.1865,-0.0145,-0.175
1764313225930,3.3583,5.1081,7.922,0.1559,-0.0099,-0.2124
1764313225940,3.213,5.2606,7.678,0.1559,-0.0099,-0.2124
1764313225950,3.213,5.2606,7.678,0.1029,-0.0918,-0.2439
1764313225960,3.1585,5.1511,7.6247,0.1029,-0.0918,-0.2439
1764313225970,3.1585,5.1511,7.6247,0.1029,-0.0918,-0.2439
1764313225980,3.1585,5.1511,7.6247,0.0672,-0.1652,-0.2598
1764313225990,3.1478,5.0788,7.6792,0.0672,-0.1652,-0.2598
1764313226000,3.1478,5.0788,7.6792,0.0475,-0.2083,-0.2833
1764313226010,3.1537,4.931,7.8993,0.0475,-0.2083,-0.2833
1764313226020,3.1537,4.931,7.8993,0.1014,-0.2841,-0.2989
1764313226030,3.1615,4.8754,7.864,0.1014,-0.2841,-0.2989
1764313226040,3.1615,4.8754,7.864,0.1706,-0.4099,-0.3009
1764313226050,3.2177,5.0788,7.7192,0.1706,-0.4099,-0.3009
1764313226060,3.2177,5.0788,7.7192,0.2182,-0.5751,-0.3276
1764313226070,3.2447,5.199,7.7749,0.2182,-0.5751,-0.3276
1764313226080,3.2447,5.199,7.7749,0.2926,-0.7581,-0.3673
1764313226090,3.3356,5.2738,7.8042,0.2926,-0.7581,-0.3673
1764313226100,3.3356,5.2738,7.8042,0.2926,-0.7581,-0.3673
1764313226110,3.4469,5.4431,7.7815,0.3815,-0.9264,-0.4088
1764313226120,3.4469,5.4431,7.7815,0.3815,-0.9264,-0.4088
1764313226130,3.4469,5.4431,7.7815,0.3815,-0.9264,-0.4088
