Timestamp,ax,ay,az,gx,gy,gz
1764313232020,3.4235,4.2897,8.388,0.0434,-0.1952,-0.5011
1764313232030,2.8439,3.9326,8.8068,0.0434,-0.1952,-0.5011
1764313232040,2.8439,3.9326,8.8068,0.0434,-0.1952,-0.5011
1764313232050,2.8439,3.9326,8.8068,0.195,-0.1448,-0.5247
1764313232060,2.3228,3.8417,8.6871,0.195,-0.1448,-0.5247
1764313232070,2.3228,3.8417,8.6871,0.3341,-0.3497,-0.3558
1764313232080,2.674,3.8889,8.9336,0.3341,-0.3497,-0.3558
1764313232090,2.674,3.8889,8.9336,0.5724,-0.6819,-0.3228
1764313232100,2.6907,4.0409,8.6512,0.5724,-0.6819,-0.3228
1764313232110,2.6907,4.0409,8.6512,0.8396,-1.0379,-0.3341
1764313232120,2.4616,3.9577,8.3731,0.8396,-1.0379,-0.3341
1764313232130,2.4616,3.9577,8.3731,0.945,-1.2639,-0.2344
1764313232140,2.4616,3.9577,8.3731,0.945,-1.2639,-0.2344
1764313232150,2.3581,3.9835,8.193,1.0195,-1.377,-0.0704
1764313232160,2.2893,4.0696,7.5631,1.0195,-1.377,-0.0704
1764313232170,2.2893,4.0696,7.5631,1.1663,-1.6174,0.0206
1764313232180,2.0853,4.404,6.0395,1.1663,-1.6174,0.0206
1764313232190,2.0853,4.404,6.0395,1.1663,-1.6174,0.0206
1764313232200,2.0853,4.404,6.0395,1.3738,-2.2161,0.0823
1764313232210,2.4993,4.1456,6.3517,1.3738,-2.2161,0.0823
1764313232220,2.4993,4.1456,6.3517,1.3014,-1.4948,0.3757
1764313232230,6.0503,5.5256,8.79,1.3014,-1.4948,0.3757
1764313232240,6.0503,5.5256,8.79,-0.5991,3.9167,0.5698
1764313232250,11.5825,8.2696,5.2977,-0.5991,3.9167,0.5698
1764313232260,11.5825,8.2696,5.2977,-4.8979,11.9768,0.038
1764313232270,15.9374,10.6708,2.0231,-4.8979,11.9768,0.038
1764313232280,15.9374,10.6708,2.0231,-8.6121,18.5526,-1.3755
1764313232290,14.6824,10.0672,-0.1591,-8.6121,18.5526,-1.3755
1764313232300,14.6824,10.0672,-0.1591,-8.6121,18.5526,-1.3755
1764313232310,14.6824,10.0672,-0.1591,-8.1161,18.5233,-3.1925
1764313232320,5.8038,4.3585,-2.4275,-8.1161,18.5233,-3.1925
1764313232330,-11.4838,-5.0315,-7.3759,-3.7345,11.7839,-4.8089
1764313232340,-11.4838,-5.0315,-7.3759,-3.7345,11.7839,-4.8089
1764313232350,-11.4838,-5.0315,-7.3759,-0.1263,1.9143,-4.4538
1764313232360,-19.8431,-10.6158,-1.2108,-0.1263,1.9143,-4.4538
1764313232370,-19.8431,-10.6158,-1.2108,0.4365,-2.9144,-2.2373
1764313232380,-14.0106,-8.2708,10.8108,0.4365,-2.9144,-2.2373
1764313232390,-14.0106,-8.2708,10.8108,-0.0628,-1.5275,-0.9581
1764313232400,-10.2449,-4.605,12.058,-0.0628,-1.5275,-0.9581
1764313232410,-10.2449,-4.605,12.058,-0.2028,-0.0991,-0.8257
1764313232420,-10.7611,-3.396,9.5845,-0.2028,-0.0991,-0.8257
1764313232430,-10.7611,-3.396,9.5845,0.3114,-0.6257,-0.7625
1764313232440,-10.5075,-2.4251,8.5167,0.3114,-0.6257,-0.7625
1764313232450,-10.5075,-2.4251,8.5167,0.3114,-0.6257,-0.7625
1764313232460,-9.7567,-2.1356,7.8162,0.9574,-1.6539,-0.6901
1764313232470,-9.7567,-2.1356,7.8162,0.9574,-1.6539,-0.6901
1764313232480,-9.7567,-2.1356,7.8162,1.3616,-2.4771,-0.5059
1764313232490,-9.1179,-2.4036,6.679,1.3616,-2.4771,-0.5059
1764313232500,-9.1179,-2.4036,6.679,1.5849,-3.4772,-0.2372
1764313232510,-7.5147,-2.1835,5.9133,1.5849,-3.4772,-0.2372
1764313232520,-7.5147,-2.1835,5.9133,1.9461,-5.1893,-0.153
1764313232530,-4.9998,-1.6116,7.2203,1.9461,-5.1893,-0.153
1764313232540,-4.9998,-1.6116,7.2203,2.906,-7.4388,-0.3325
1764313232550,-2.6333,-0.8171,10.8694,2.906,-7.4388,-0.3325
1764313232560,-2.6333,-0.8171,10.8694,4.0679,-8.4131,-0.5081
1764313232570,-0.9093,-0.2632,12.0132,4.0679,-8.4131,-0.5081
1764313232580,-0.9093,-0.2632,12.0132,4.0679,-8.4131,-0.5081
1764313232590,0.2477,0.941,10.9914,4.4408,-7.8876,-0.5357
1764313232600,0.2477,0.941,10.9914,4.4408,-7.8876,-0.5357
1764313232610,0.2477,0.941,10.9914,4.1721,-6.791,-0.3977
1764313232620,0.9697,2.0704,9.9075,4.1721,-6.791,-0.3977
1764313232630,0.9697,2.0704,9.9075,3.1495,-4.5853,-0.1017
1764313232640,2.5472,2.8983,9.1519,3.1495,-4.5853,-0.1017
1764313232650,2.5472,2.8983,9.1519,1.4595,-1.5795,0.1155
1764313232660,3.466,3.4331,8.8152,1.4595,-1.5795,0.1155
1764313232670,3.466,3.4331,8.8152,0.1254,0.7566,0.1411
1764313232680,2.8798,3.4696,7.7653,0.1254,0.7566,0.1411
1764313232690,2.8798,3.4696,7.7653,-0.2005,1.0284,0.0707
1764313232700,2.0273,3.3673,7.3537,-0.2005,1.0284,0.0707
1764313232710,2.0273,3.3673,7.3537,-0.2005,1.0284,0.0707
1764313232720,1.925,3.2925,8.0465,0.2895,-0.0698,-0.0018
1764313232730,1.925,3.2925,8.0465,0.2895,-0.0698,-0.0018
1764313232740,1.925,3.2925,8.0465,0.7016,-0.6594,0.029
1764313232750,2.318,3.2189,8.2253,0.7016,-0.6594,0.029
1764313232760,2.318,3.2189,8.2253,0.5591,-0.35,0.1423
1764313232770,2.7535,3.4026,8.0124,0.5591,-0.35,0.1423
1764313232780,2.7535,3.4026,8.0124,0.1591,0.2355,0.2136
1764313232790,2.9575,3.6024,7.7222,0.1591,0.2355,0.2136
1764313232800,2.9575,3.6024,7.7222,-0.1211,0.423,0.19
1764313232810,3.0449,3.7884,7.7976,-0.1211,0.423,0.19
1764313232820,3.0449,3.7884,7.7976,-0.2045,0.2508,0.0886
1764313232830,2.8445,3.6957,8.211,-0.2045,0.2508,0.0886
1764313232840,2.8445,3.6957,8.211,-0.1263,-0.0625,-0.0015
1764313232850,2.5902,3.3344,8.6871,-0.1263,-0.0625,-0.0015
1764313232860,2.5902,3.3344,8.6871,-0.1263,-0.0625,-0.0015
1764313232870,2.5902,3.3344,8.6871,0.0421,-0.3224,-0.0234
1764313232880,2.6495,3.2465,9.0018,0.0421,-0.3224,-0.0234
1764313232890,2.6495,3.2465,9.0018,0.1032,-0.2931,-0.0137
1764313232900,2.7517,3.4343,8.8122,0.1032,-0.2931,-0.0137
1764313232910,2.7517,3.4343,8.8122,-0.025,-0.0463,-0.0032
1764313232920,2.519,2.997,9.1872,-0.025,-0.0463,-0.0032
1764313232930,2.519,2.997,9.1872,-0.1329,0.4742,0.1109
1764313232940,2.3228,3.2698,8.9886,-0.1329,0.4742,0.1109
1764313232950,2.3228,3.2698,8.9886,-0.3506,0.6779,0.3622
1764313232960,2.5591,3.1741,8.732,-0.3506,0.6779,0.3622
1764313232970,2.5591,3.1741,8.732,-0.4876,0.5878,0.3977
1764313232980,3.2273,3.4152,9.4056,-0.4876,0.5878,0.3977
1764313232990,3.2273,3.4152,9.4056,-0.4876,0.5878,0.3977
1764313233000,3.2273,3.4152,9.4056,-0.2961,0.4554,0.1778
1764313233010,3.4708,3.6239,9.737,-0.2961,0.4554,0.1778
1764313233020,3.4708,3.6239,9.737,0.0072,0.2886,-0.1382
1764313233030,2.9127,3.2321,9.8357,0.0072,0.2886,-0.1382
1764313233040,2.9127,3.2321,9.8357,0.2427,0.1839,-0.2808
1764313233050,1.7862,2.8199,9.6443,0.2427,0.1839,-0.2808
1764313233060,1.7862,2.8199,9.6443,0.4074,0.1142,-0.1413
1764313233070,1.2347,2.8283,9.1472,0.4074,0.1142,-0.1413
1764313233080,1.2347,2.8283,9.1472,0.4365,-0.0107,0.08
1764313233090,1.587,3.0066,8.8762,0.4365,-0.0107,0.08
1764313233100,1.587,3.0066,8.8762,0.3989,-0.1155,0.2025
1764313233110,1.587,3.0066,8.8762,0.3989,-0.1155,0.2025
1764313233120,2.2217,3.344,9.0437,0.3989,-0.1155,0.2025
1764313233130,2.5256,3.3033,9.0353,0.3195,0.0121,0.1846
1764313233140,2.5256,3.3033,9.0353,0.3195,0.0121,0.1846
1764313233150,2.5256,3.3033,9.0353,0.2395,0.1652,0.1187
1764313233160,2.3976,3.4038,8.9061,0.2395,0.1652,0.1187
1764313233170,2.3976,3.4038,8.9061,0.25,0.1939,0.0754
1764313233180,1.9322,3.3631,8.2684,0.25,0.1939,0.0754
1764313233190,1.9322,3.3631,8.2684,0.2231,0.0878,0.1329
1764313233200,1.7886,3.5091,7.9298,0.2231,0.0878,0.1329
1764313233210,1.7886,3.5091,7.9298,0.1429,-0.12,0.2078
1764313233220,2.0542,3.4522,8.2947,0.1429,-0.12,0.2078
1764313233230,2.0542,3.4522,8.2947,0.1167,-0.288,0.2372
1764313233240,2.391,3.332,8.9414,0.1167,-0.288,0.2372
1764313233250,2.391,3.332,8.9414,0.1167,-0.288,0.2372
1764313233260,2.391,3.332,8.9414,0.1205,-0.1489,0.2405
1764313233270,2.5842,3.4158,9.128,0.1205,-0.1489,0.2405
1764313233280,2.5842,3.4158,9.128,0.0533,0.1403,0.225
1764313233290,2.4156,3.4044,9.0802,0.0533,0.1403,0.225
1764313233300,2.4156,3.4044,9.0802,0.0765,0.1688,0.2124
1764313233310,2.4802,3.6114,9.1759,0.0765,0.1688,0.2124
1764313233320,2.4802,3.6114,9.1759,0.2663,-0.0959,0.1367
1764313233330,2.6381,3.8225,9.2507,0.2663,-0.0959,0.1367
1764313233340,2.6381,3.8225,9.2507,0.4992,-0.3699,0.0547
1764313233350,2.5681,3.8028,9.3559,0.4992,-0.3699,0.0547
1764313233360,2.5681,3.8028,9.3559,0.5119,-0.2112,0.0918
1764313233370,2.385,3.7406,8.9414,0.5119,-0.2112,0.0918
1764313233380,2.385,3.7406,8.9414,0.2755,0.0858,0.2216
1764313233390,2.385,3.7406,8.9414,0.2755,0.0858,0.2216
1764313233400,2.3085,3.8225,8.7051,0.2755,0.0858,0.2216
1764313233410,2.3085,3.8225,8.7051,0.1599,0.0869,0.3065
1764313233420,2.6417,4.0421,8.9647,0.1599,0.0869,0.3065
1764313233430,2.6417,4.0421,8.9647,0.38,-0.2799,0.2607
1764313233440,2.8295,3.9894,9.1514,0.38,-0.2799,0.2607
1764313233450,2.8295,3.9894,9.1514,0.6593,-0.5318,0.1831
1764313233460,2.2002,3.9003,8.7087,0.6593,-0.5318,0.1831
1764313233470,2.2002,3.9003,8.7087,0.7683,-0.5947,0.2176
1764313233480,1.815,3.6419,8.6058,0.7683,-0.5947,0.2176
1764313233490,1.815,3.6419,8.6058,0.7825,-0.4759,0.4782
1764313233500,2.5107,3.6897,8.1583,0.7825,-0.4759,0.4782
1764313233510,2.5107,3.6897,8.1583,0.7825,-0.4759,0.4782
1764313233520,2.8427,4.0104,7.9807,0.7065,-0.4371,0.5948
1764313233530,2.8427,4.0104,7.9807,0.7065,-0.4371,0.5948
1764313233540,3.1663,4.1922,8.0369,0.7358,-0.503,0.6061
1764313233550,3.1663,4.1922,8.0369,0.7358,-0.503,0.6061
1764313233560,3.1663,4.1922,8.0369,0.744,-0.4151,0.6477
1764313233570,4.3418,4.7504,8.8247,0.744,-0.4151,0.6477
1764313233580,4.3418,4.7504,8.8247,0.2256,1.1128,0.6987
1764313233590,7.8209,6.2722,10.6546,0.2256,1.1128,0.6987
1764313233600,7.8209,6.2722,10.6546,-1.4968,5.8877,0.3826
1764313233610,11.001,8.0064,9.4433,-1.4968,5.8877,0.3826
1764313233620,11.001,8.0064,9.4433,-4.6247,13.1542,-0.1926
1764313233630,13.0744,9.6509,1.9717,-4.6247,13.1542,-0.1926
1764313233640,13.0744,9.6509,1.9717,-7.4454,17.8162,-1.3593
1764313233650,8.9061,8.8678,-3.8465,-7.4454,17.8162,-1.3593
1764313233660,8.9061,8.8678,-3.8465,-7.4454,17.8162,-1.3593
1764313233670,-1.1354,3.4552,-6.5916,-7.1557,15.862,-2.8059
1764313233680,-1.1354,3.4552,-6.5916,-7.1557,15.862,-2.8059
1764313233690,-1.1354,3.4552,-6.5916,-3.981,7.9622,-3.8297
1764313233700,-11.9946,-3.9452,-5.3659,-3.981,7.9622,-3.8297
1764313233710,-11.9946,-3.9452,-5.3659,-0.7013,-1.0505,-3.6618
1764313233720,-15.4319,-9.9512,5.7858,-0.7013,-1.0505,-3.6618
1764313233730,-15.4319,-9.9512,5.7858,0.6231,-3.6267,-1.7808
1764313233740,-10.3849,-7.9041,11.9659,0.6231,-3.6267,-1.7808
1764313233750,-10.3849,-7.9041,11.9659,0.0487,-0.9817,-0.7894
1764313233760,-8.9504,-5.3521,8.3163,0.0487,-0.9817,-0.7894
1764313233770,-8.9504,-5.3521,8.3163,-0.8949,0.4206,-0.6661
1764313233780,-10.3478,-4.1856,6.4427,-0.8949,0.4206,-0.6661
1764313233790,-10.3478,-4.1856,6.4427,-0.4925,-0.9716,-0.6574
1764313233800,-10.946,-4.1539,7.4883,-0.4925,-0.9716,-0.6574
1764313233810,-10.946,-4.1539,7.4883,-0.4925,-0.9716,-0.6574
1764313233820,-10.946,-4.1539,7.4883,0.7013,-2.9123,-0.454
1764313233830,-11.1709,-4.8227,8.5041,0.7013,-2.9123,-0.454
1764313233840,-11.1709,-4.8227,8.5041,1.7245,-4.302,0.1648
1764313233850,-9.2566,-4.4662,8.1565,1.7245,-4.302,0.1648
1764313233860,-9.2566,-4.4662,8.1565,2.425,-5.6364,0.6252
1764313233870,-5.452,-2.5681,8.3731,2.425,-5.6364,0.6252
1764313233880,-5.452,-2.5681,8.3731,3.2448,-7.2785,0.4366
1764313233890,-2.6501,-1.3944,10.1246,3.2448,-7.2785,0.4366
1764313233900,-2.6501,-1.3944,10.1246,4.3521,-8.6949,0.0706
1764313233910,-0.5946,-0.4534,11.8361,4.3521,-8.6949,0.0706
1764313233920,-0.5946,-0.4534,11.8361,5.384,-9.1836,-0.1553
1764313233930,0.7591,0.7119,12.1017,5.384,-9.1836,-0.1553
1764313233940,0.7591,0.7119,12.1017,5.384,-9.1836,-0.1553
1764313233950,1.8855,1.5918,10.0229,5.6865,-8.0078,-0.0637
1764313233960,1.8855,1.5918,10.0229,5.6865,-8.0078,-0.0637
1764313233970,1.8855,1.5918,10.0229,4.6041,-5.2708,0.3071
1764313233980,3.4678,2.863,7.742,4.6041,-5.2708,0.3071
1764313233990,3.4678,2.863,7.742,2.5412,-1.7126,0.6518
1764313234000,5.4138,4.3202,5.7637,2.5412,-1.7126,0.6518
1764313234010,5.4138,4.3202,5.7637,0.2089,1.5139,0.6362
1764313234020,5.6776,4.7031,4.3149,0.2089,1.5139,0.6362
1764313234030,5.6776,4.7031,4.3149,-1.3453,2.5323,0.3065
1764313234040,3.7531,3.9129,5.8612,-1.3453,2.5323,0.3065
1764313234050,3.7531,3.9129,5.8612,-1.1978,1.5363,0.1167
1764313234060,2.5543,2.851,7.9202,-1.1978,1.5363,0.1167
1764313234070,2.5543,2.851,7.9202,-1.1978,1.5363,0.1167
1764313234080,2.8648,2.7212,9.0802,-0.2013,0.2311,0.1086
1764313234090,2.8648,2.7212,9.0802,-0.2013,0.2311,0.1086
1764313234100,2.8648,2.7212,9.0802,0.3648,-0.2242,0.0964
1764313234110,3.323,2.6118,9.0449,0.3648,-0.2242,0.0964
1764313234120,3.323,2.6118,9.0449,0.39,-0.0612,0.1477
1764313234130,3.9386,3.2602,8.3833,0.39,-0.0612,0.1477
1764313234140,3.9386,3.2602,8.3833,0.0846,0.2242,0.0793
1764313234150,4.1839,3.7412,8.5597,0.0846,0.2242,0.0793
1764313234160,4.1839,3.7412,8.5597,-0.2107,0.4458,-0.0528
1764313234170,3.2686,3.4092,9.07,-0.2107,0.4458,-0.0528
1764313234180,3.2686,3.4092,9.07,-0.2367,0.5333,-0.0951
1764313234190,2.3258,2.9557,8.747,-0.2367,0.5333,-0.0951
1764313234200,2.3258,2.9557,8.747,-0.2367,0.5333,-0.0951
1764313234210,2.3258,2.9557,8.747,-0.1133,0.2579,0.0124
1764313234220,2.2672,3.1167,8.5615,-0.1133,0.2579,0.0124
1764313234230,2.2672,3.1167,8.5615,0.0093,-0.2604,0.0463
1764313234240,2.8475,2.8152,9.2423,0.0093,-0.2604,0.0463
1764313234250,2.8475,2.8152,9.2423,0.2288,-0.396,-0.0038
1764313234260,3.0377,2.8582,9.3464,0.2288,-0.396,-0.0038
1764313234270,3.0377,2.8582,9.3464,0.3216,-0.2518,-0.0307
1764313234280,3.0598,3.0209,9.1519,0.3216,-0.2518,-0.0307
1764313234290,3.0598,3.0209,9.1519,0.2144,0.0651,-0.0218
1764313234300,3.009,3.1394,8.8522,0.2144,0.0651,-0.0218
1764313234310,3.009,3.1394,8.8522,0.0638,0.2837,-0.0313
1764313234320,2.8415,3.3272,8.6315,0.0638,0.2837,-0.0313
1764313234330,2.8415,3.3272,8.6315,0.0208,0.2581,-0.0463
1764313234340,2.6524,3.4325,8.3432,0.0208,0.2581,-0.0463
1764313234350,2.6524,3.4325,8.3432,0.0208,0.2581,-0.0463
1764313234360,2.6524,3.4325,8.3432,0.0964,-0.0625,-0.0887
1764313234370,2.5286,3.329,8.6495,0.0964,-0.0625,-0.0887
1764313234380,2.5286,3.329,8.6495,0.2529,-0.3512,-0.0918
1764313234390,2.7625,3.4199,9.0174,0.2529,-0.3512,-0.0918
1764313234400,2.7625,3.4199,9.0174,0.3274,-0.3578,-0.0695
1764313234410,3.189,3.5139,8.7703,0.3274,-0.3578,-0.0695
1764313234420,3.189,3.5139,8.7703,0.2308,-0.1367,-0.0983
1764313234430,3.2195,3.6263,8.1942,0.2308,-0.1367,-0.0983
1764313234440,3.2195,3.6263,8.1942,0.0264,-0.0434,-0.1709
1764313234450,3.2865,3.7101,8.5663,0.0264,-0.0434,-0.1709
1764313234460,3.2865,3.7101,8.5663,0.0264,-0.0434,-0.1709
1764313234470,3.2865,3.7101,8.5663,0.0035,-0.0761,-0.2628
1764313234480,3.1394,3.722,8.467,0.0035,-0.0761,-0.2628
1764313234490,2.8953,3.8303,8.0435,0.024,-0.1037,-0.3216
1764313234500,2.8953,3.8303,8.0435,0.024,-0.1037,-0.3216
1764313234510,2.8953,3.8303,8.0435,-0.1326,-0.1003,-0.3428
1764313234520,2.7852,3.5157,8.4449,-0.1326,-0.1003,-0.3428
1764313234530,2.7852,3.5157,8.4449,-0.2501,-0.1286,-0.2946
1764313234540,2.9539,3.3392,9.1537,-0.2501,-0.1286,-0.2946
1764313234550,2.9539,3.3392,9.1537,-0.1468,-0.084,-0.2779
1764313234560,3.2016,3.2465,9.4672,-0.1468,-0.084,-0.2779
1764313234570,3.2016,3.2465,9.4672,-0.0275,-0.0304,-0.3141
1764313234580,3.1268,3.35,9.3655,-0.0275,-0.0304,-0.3141
1764313234590,3.1268,3.35,9.3655,0.0648,-0.0333,-0.3777
1764313234600,2.9097,3.3565,8.9575,0.0648,-0.0333,-0.3777
1764313234610,2.9097,3.3565,8.9575,0.0648,-0.0333,-0.3777
1764313234620,2.9097,3.3565,8.9575,0.1356,-0.1347,-0.4027
1764313234630,2.7547,3.612,8.6812,0.1356,-0.1347,-0.4027
1764313234640,2.7547,3.612,8.6812,0.133,-0.214,-0.423
1764313234650,2.4538,3.533,8.5759,0.133,-0.214,-0.423
1764313234660,2.4538,3.533,8.5759,0.0638,-0.1903,-0.368
1764313234670,2.5304,3.6066,9.0084,0.0638,-0.1903,-0.368
1764313234680,2.5304,3.6066,9.0084,0.0214,-0.0478,-0.3183
1764313234690,2.7117,3.5587,9.1854,0.0214,-0.0478,-0.3183
1764313234700,2.7117,3.5587,9.1854,0.0293,0.0783,-0.3131
1764313234710,2.741,3.7155,8.8505,0.0293,0.0783,-0.3131
1764313234720,2.741,3.7155,8.8505,0.0293,0.0783,-0.3131
1764313234730,2.7153,3.8734,8.5059,0.0863,-0.0368,-0.37
1764313234740,2.7153,3.8734,8.5059,0.0863,-0.0368,-0.37
1764313234750,2.4491,3.7041,8.68,0.177,-0.3749,-0.4592
1764313234760,2.4491,3.7041,8.68,0.177,-0.3749,-0.4592
1764313234770,2.4491,3.7041,8.68,0.3509,-0.7324,-0.5159
1764313234780,1.8389,3.2889,9.2614,0.3509,-0.7324,-0.5159
1764313234790,1.8389,3.2889,9.2614,0.6254,-0.8219,-0.4079
1764313234800,1.9944,3.6419,8.1864,0.6254,-0.8219,-0.4079
1764313234810,1.9944,3.6419,8.1864,0.6335,-1.1119,-0.2731
1764313234820,2.272,3.8907,8.01,0.6335,-1.1119,-0.2731
1764313234830,2.272,3.8907,8.01,0.6706,-1.4699,-0.2107
1764313234840,2.4885,3.8124,8.4449,0.6706,-1.4699,-0.2107
1764313234850,2.4885,3.8124,8.4449,0.8376,-1.7065,-0.1272
1764313234860,2.8702,3.7555,8.729,0.8376,-1.7065,-0.1272
1764313234870,2.8702,3.7555,8.729,0.8775,-1.3897,0.0087
1764313234880,4.0427,4.4076,9.3332,0.8775,-1.3897,0.0087
1764313234890,4.0427,4.4076,9.3332,0.8775,-1.3897,0.0087
1764313234900,4.0427,4.4076,9.3332,0.215,0.4682,0.2135
1764313234910,6.3841,5.2917,10.27,0.215,0.4682,0.2135
1764313234920,6.3841,5.2917,10.27,-1.6927,4.8293,0.3508
1764313234930,8.8618,6.6885,10.6259,-1.6927,4.8293,0.3508
1764313234940,8.8618,6.6885,10.6259,-4.6366,11.6249,0.1287
1764313234950,9.2076,8.0046,5.5448,-4.6366,11.6249,0.1287
1764313234960,9.2076,8.0046,5.5448,-7.2705,16.8131,-0.3852
1764313234970,7.4357,7.8359,-0.1831,-7.2705,16.8131,-0.3852
1764313234980,7.4357,7.8359,-0.1831,-7.2705,16.8131,-0.3852
1764313234990,0.4433,4.3131,-3.2991,-7.7635,16.7456,-1.4048
1764313235000,0.4433,4.3131,-3.2991,-4.6505,10.1287,-2.4882
1764313235010,-6.7777,0.6796,-3.6245,-4.6505,10.1287,-2.4882
1764313235020,-6.7777,0.6796,-3.6245,-4.6505,10.1287,-2.4882
1764313235030,-6.7777,0.6796,-3.6245,-0.6313,1.3135,-3.5322
1764313235040,-11.6542,-5.0584,1.0845,-0.6313,1.3135,-3.5322
1764313235050,-11.6542,-5.0584,1.0845,0.761,-3.0427,-2.9183
1764313235060,-11.2289,-7.9645,8.6124,0.761,-3.0427,-2.9183
1764313235070,-11.2289,-7.9645,8.6124,-0.0348,-1.5082,-1.4925
1764313235080,-9.1214,-5.8612,9.3817,-0.0348,-1.5082,-1.4925
1764313235090,-9.1214,-5.8612,9.3817,-1.1142,0.7104,-0.9068
1764313235100,-9.4648,-4.4919,8.0267,-1.1142,0.7104,-0.9068
1764313235110,-9.4648,-4.4919,8.0267,-0.9756,0.4275,-0.8494
1764313235120,-10.5571,-4.5069,8.5472,-0.9756,0.4275,-0.8494
1764313235130,-10.5571,-4.5069,8.5472,0.215,-1.1967,-0.6593
1764313235140,-10.2335,-4.2096,8.9874,0.215,-1.1967,-0.6593
1764313235150,-10.2335,-4.2096,8.9874,0.215,-1.1967,-0.6593
1764313235160,-9.3476,-3.862,7.9693,1.2607,-2.467,-0.339
1764313235170,-9.3476,-3.862,7.9693,1.2607,-2.467,-0.339
1764313235180,-9.3476,-3.862,7.9693,1.7116,-3.4547,-0.0015
1764313235190,-7.1797,-2.9498,7.9585,1.7116,-3.4547,-0.0015
1764313235200,-7.1797,-2.9498,7.9585,1.8972,-4.3028,0.0006
1764313235210,-4.9448,-2.2654,9.673,1.8972,-4.3028,0.0006
1764313235220,-4.9448,-2.2654,9.673,2.2352,-4.9307,-0.3094
1764313235230,-4.7569,-2.3785,11.6608,2.2352,-4.9307,-0.3094
1764313235240,-4.7569,-2.3785,11.6608,2.987,-5.4553,-0.4123
1764313235250,-4.6313,-2.5059,12.8351,2.987,-5.4553,-0.4123
1764313235260,-4.6313,-2.5059,12.8351,3.9668,-5.7566,-0.1856
1764313235270,-3.4086,-1.5344,11.613,3.9668,-5.7566,-0.1856
1764313235280,-3.4086,-1.5344,11.613,3.9668,-5.7566,-0.1856
1764313235290,-1.7324,0.2806,9.4738,4.4996,-5.6613,0.0886
1764313235300,-1.7324,0.2806,9.4738,4.4996,-5.6613,0.0886
1764313235310,-1.7324,0.2806,9.4738,4.1314,-4.7968,0.2596
1764313235320,-0.1741,1.5505,8.2457,4.1314,-4.7968,0.2596
1764313235330,-0.1741,1.5505,8.2457,2.9572,-3.0012,0.3987
1764313235340,1.4548,2.3737,7.4812,2.9572,-3.0012,0.3987
1764313235350,1.4548,2.3737,7.4812,1.4818,-1.085,0.4473
1764313235360,2.4233,3.1986,7.054,1.4818,-1.085,0.4473
1764313235370,2.4233,3.1986,7.054,0.4282,0.1187,0.3015
1764313235380,1.9938,3.265,6.9996,0.4282,0.1187,0.3015
1764313235390,1.9938,3.265,6.9996,0.025,0.3418,0.1067
1764313235400,1.2185,3.0138,7.1354,0.025,0.3418,0.1067
1764313235410,1.2185,3.0138,7.1354,0.2065,-0.2734,-0.0157
1764313235420,1.2185,3.0138,7.1354,0.2065,-0.2734,-0.0157
1764313235430,0.9637,2.921,7.7803,0.2065,-0.2734,-0.0157
1764313235440,0.9637,2.921,7.7803,0.4443,-0.7182,-0.0533
1764313235450,0.9541,2.592,8.3827,0.4443,-0.7182,-0.0533
1764313235460,0.9541,2.592,8.3827,0.3864,-0.6545,0.0072
1764313235470,1.1521,2.4245,9.2794,0.3864,-0.6545,0.0072
1764313235480,1.1521,2.4245,9.2794,0.2732,-0.3057,0.1651
1764313235490,1.413,2.7314,9.2393,0.2732,-0.3057,0.1651
1764313235500,1.413,2.7314,9.2393,0.1352,-0.0214,0.2338
1764313235510,1.9525,3.1669,8.7595,0.1352,-0.0214,0.2338
1764313235520,1.9525,3.1669,8.7595,-0.0281,0.004,0.1683
1764313235530,2.2714,3.5043,9.3787,-0.0281,0.004,0.1683
1764313235540,2.2714,3.5043,9.3787,-0.0515,0.1297,-0.0096
1764313235550,1.1503,2.321,10.0259,-0.0515,0.1297,-0.0096
1764313235560,1.1503,2.321,10.0259,-0.0515,0.1297,-0.0096
1764313235570,1.1503,2.321,10.0259,0.0672,0.4285,0.1678
1764313235580,0.2106,2.5316,8.9366,0.0672,0.4285,0.1678
1764313235590,0.2106,2.5316,8.9366,-0.1565,0.2755,0.5292
1764313235600,0.786,2.3707,9.5408,-0.1565,0.2755,0.5292
1764313235610,0.786,2.3707,9.5408,-0.1998,0.2703,0.679
1764313235620,1.8867,2.6207,10.1791,-0.1998,0.2703,0.679
1764313235630,1.8867,2.6207,10.1791,0.0118,0.2364,0.5638
1764313235640,2.2187,3.0485,10.0708,0.0118,0.2364,0.5638
1764313235650,2.2187,3.0485,10.0708,0.2874,0.1008,0.3584
1764313235660,1.9143,3.0676,9.5725,0.2874,0.1008,0.3584
1764313235670,1.9143,3.0676,9.5725,0.3575,0.0451,0.2453
1764313235680,1.3238,2.9192,9.2746,0.3575,0.0451,0.2453
1764313235690,1.3238,2.9192,9.2746,0.3575,0.0451,0.2453
1764313235700,1.0289,2.7697,9.1196,0.3152,0.0247,0.275
1764313235710,1.0289,2.7697,9.1196,0.3152,0.0247,0.275
1764313235720,1.0289,2.7697,9.1196,0.2798,-0.0165,0.3711
1764313235730,1.3418,2.9324,9.1914,0.2798,-0.0165,0.3711
1764313235740,1.3418,2.9324,9.1914,0.2393,0.0681,0.4041
1764313235750,1.5906,2.9414,9.1962,0.2393,0.0681,0.4041
1764313235760,1.5906,2.9414,9.1962,0.1881,0.1497,0.3743
1764313235770,1.6385,2.8235,9.5557,0.1881,0.1497,0.3743
1764313235780,1.6385,2.8235,9.5557,0.2605,0.232,0.367
1764313235790,1.477,2.9396,8.9025,0.2605,0.232,0.367
1764313235800,1.477,2.9396,8.9025,0.2703,0.166,0.361
1764313235810,1.3238,3.055,8.726,0.2703,0.166,0.361
1764313235820,1.3238,3.055,8.726,0.2703,0.166,0.361
1764313235830,1.1324,3.0054,8.6106,0.2144,0.0658,0.372
1764313235840,1.1324,3.0054,8.6106,0.2144,0.0658,0.372
1764313235850,1.1324,3.0054,8.6106,0.1723,0.0009,0.4359
1764313235860,1.3866,3.21,8.9013,0.1723,0.0009,0.4359
1764313235870,1.3866,3.21,8.9013,0.1347,-0.1049,0.4331
1764313235880,2.1075,3.1286,10.0834,0.1347,-0.1049,0.4331
1764313235890,2.1075,3.1286,10.0834,0.2639,0.0589,0.3456
1764313235900,2.5208,3.2752,9.9194,0.2639,0.0589,0.3456
1764313235910,2.5208,3.2752,9.9194,0.3038,0.2286,0.214
1764313235920,1.855,3.2943,9.3188,0.3038,0.2286,0.214
1764313235930,1.855,3.2943,9.3188,0.3038,0.2286,0.214
1764313235940,1.1521,2.9892,9.1466,0.2943,0.1871,0.2042
1764313235950,1.1521,2.9892,9.1466,0.2866,0.0101,0.3532
1764313235960,1.2843,3.2267,9.2088,0.2866,0.0101,0.3532
1764313235970,1.2843,3.2267,9.2088,0.2866,0.0101,0.3532
1764313235980,1.8221,3.3559,9.4343,0.3798,-0.164,0.44
1764313235990,1.8221,3.3559,9.4343,0.3798,-0.164,0.44
1764313236000,1.8221,3.3559,9.4343,0.4203,-0.1077,0.4449
1764313236010,1.9986,3.2794,9.3906,0.4203,-0.1077,0.4449
1764313236020,1.9986,3.2794,9.3906,0.4331,-0.0324,0.4371
1764313236030,2.2014,3.4343,9.1819,0.4331,-0.0324,0.4371
1764313236040,2.2014,3.4343,9.1819,0.4959,-0.1243,0.3784
1764313236050,2.1823,3.5809,9.0909,0.4959,-0.1243,0.3784
1764313236060,2.1823,3.5809,9.0909,0.6567,-0.326,0.2734
1764313236070,1.9178,3.478,9.1968,0.6567,-0.326,0.2734
1764313236080,1.9178,3.478,9.1968,0.8868,-0.4737,0.2283
1764313236090,1.2377,3.3661,8.8451,0.8868,-0.4737,0.2283
1764313236100,1.2377,3.3661,8.8451,0.8868,-0.4737,0.2283
1764313236110,0.8614,3.0401,8.7015,1.022,-0.6061,0.3755
1764313236120,0.8614,3.0401,8.7015,1.022,-0.6061,0.3755
1764313236130,0.8614,3.0401,8.7015,1.1035,-0.5728,0.6464
1764313236140,1.4776,3.1238,8.8917,1.1035,-0.5728,0.6464
1764313236150,1.4776,3.1238,8.8917,0.9317,-0.0438,0.8945
1764313236160,3.1573,3.929,9.7561,0.9317,-0.0438,0.8945
1764313236170,3.1573,3.929,9.7561,0.1953,1.8408,1.053
1764313236180,6.2704,5.1673,11.7745,0.1953,1.8408,1.053
1764313236190,6.2704,5.1673,11.7745,-1.6554,6.3418,0.9833
1764313236200,8.4676,6.2405,11.6979,-1.6554,6.3418,0.9833
1764313236210,8.4676,6.2405,11.6979,-4.4892,12.5921,0.6962
1764313236220,7.4512,6.536,7.3663,-4.4892,12.5921,0.6962
1764313236230,7.4512,6.536,7.3663,-4.4892,12.5921,0.6962
1764313236240,7.5697,8.0602,4.4967,-6.6242,16.5187,0.5295
1764313236250,7.5697,8.0602,4.4967,-6.6242,16.5187,0.5295
1764313236260,7.5697,8.0602,4.4967,-6.316,15.9764,-0.5252
1764313236270,3.1502,6.612,0.6126,-6.316,15.9764,-0.5252
1764313236280,3.1502,6.612,0.6126,-3.0149,10.2341,-2.186
1764313236290,-6.6963,2.8588,-7.0146,-3.0149,10.2341,-2.186
1764313236300,-6.6963,2.8588,-7.0146,0.2341,1.399,-3.2237
1764313236310,-13.3149,-3.9464,-4.5051,0.2341,1.399,-3.2237
1764313236320,-13.3149,-3.9464,-4.5051,0.427,-3.0826,-2.1932
1764313236330,-12.2513,-6.3805,6.6054,0.427,-3.0826,-2.1932
1764313236340,-12.2513,-6.3805,6.6054,-0.6243,-1.3367,-0.6898
1764313236350,-9.2279,-3.7585,8.1212,-0.6243,-1.3367,-0.6898
1764313236360,-9.2279,-3.7585,8.1212,-0.6243,-1.3367,-0.6898
1764313236370,-9.8088,-2.9815,6.6455,-1.0675,0.1814,-0.4326
1764313236380,-9.8088,-2.9815,6.6455,-1.0675,0.1814,-0.4326
1764313236390,-9.8088,-2.9815,6.6455,-0.6249,-0.5745,-0.6014
1764313236400,-11.211,-3.1902,7.1067,-0.6249,-0.5745,-0.6014
1764313236410,-11.211,-3.1902,7.1067,0.0496,-1.5372,-0.4785
1764313236420,-11.7278,-3.2943,7.0905,0.0496,-1.5372,-0.4785
1764313236430,-11.7278,-3.2943,7.0905,0.338,-1.9717,-0.0264
1764313236440,-10.8652,-2.9988,6.3015,0.338,-1.9717,-0.0264
1764313236450,-10.8652,-2.9988,6.3015,0.3713,-2.3715,0.374
1764313236460,-9.3876,-2.3079,5.6746,0.3713,-2.3715,0.374
1764313236470,-9.3876,-2.3079,5.6746,0.6329,-3.5126,0.5295
1764313236480,-7.5314,-2.0261,6.2626,0.6329,-3.5126,0.5295
1764313236490,-7.5314,-2.0261,6.2626,0.6329,-3.5126,0.5295
1764313236500,-4.9866,-1.4901,7.6283,1.3048,-5.2084,0.4885
1764313236510,-4.9866,-1.4901,7.6283,1.3048,-5.2084,0.4885
1764313236520,-4.9866,-1.4901,7.6283,2.337,-7.1169,0.1842
1764313236530,-2.9994,-0.8423,10.3502,2.337,-7.1169,0.1842
1764313236540,-2.9994,-0.8423,10.3502,3.7029,-8.4186,-0.2043
1764313236550,-1.9334,-0.2554,12.0963,3.7029,-8.4186,-0.2043
1764313236560,-1.9334,-0.2554,12.0963,4.5094,-8.0619,-0.2017
1764313236570,-1.0223,0.2363,11.723,4.5094,-8.0619,-0.2017
1764313236580,-1.0223,0.2363,11.723,3.7481,-5.6441,0.1834
1764313236590,-0.0957,0.9111,10.7468,3.7481,-5.6441,0.1834
1764313236600,-0.0957,0.9111,10.7468,2.0892,-2.3837,0.648
1764313236610,1.9065,2.2744,9.7519,2.0892,-2.3837,0.648
1764313236620,1.9065,2.2744,9.7519,0.7172,0.0779,0.7869
1764313236630,1.9065,2.2744,9.7519,0.7172,0.0779,0.7869
1764313236640,2.7625,3.6574,8.5807,0.7172,0.0779,0.7869
1764313236650,1.8317,3.6036,7.4417,0.0247,1.0765,0.4945
1764313236660,1.8317,3.6036,7.4417,0.0247,1.0765,0.4945
1764313236670,1.8317,3.6036,7.4417,0.0866,0.4108,0.1593
1764313236680,0.8554,3.0377,8.1212,0.0866,0.4108,0.1593
1764313236690,0.8554,3.0377,8.1212,0.4783,-0.4172,0.0258
1764313236700,0.7501,2.6213,9.0867,0.4783,-0.4172,0.0258
1764313236710,0.7501,2.6213,9.0867,0.6298,-0.5263,0.0593
1764313236720,0.6814,2.3988,9.1155,0.6298,-0.5263,0.0593
1764313236730,0.6814,2.3988,9.1155,0.4087,-0.1049,0.2107
1764313236740,0.6814,2.3988,9.1155,0.4087,-0.1049,0.2107
1764313236750,1.3621,2.7165,8.522,-0.062,0.2601,0.1944
1764313236760,1.8796,3.3003,8.7374,-0.062,0.2601,0.1944
1764313236770,1.8796,3.3003,8.7374,-0.062,0.2601,0.1944
1764313236780,1.8796,3.3003,8.7374,-0.1808,0.0666,-0.0663
1764313236790,0.3799,2.4532,9.7244,-0.1808,0.0666,-0.0663
1764313236800,0.3799,2.4532,9.7244,0.2818,-0.2417,-0.0747
1764313236810,-0.5168,1.9394,9.4325,0.2818,-0.2417,-0.0747
1764313236820,-0.5168,1.9394,9.4325,0.4039,-0.2547,0.3584
1764313236830,0.0718,2.4377,8.4736,0.4039,-0.2547,0.3584
1764313236840,0.0718,2.4377,8.4736,-0.0531,-0.0796,0.6565
1764313236850,1.1821,2.5747,8.8869,-0.0531,-0.0796,0.6565
1764313236860,1.1821,2.5747,8.8869,-0.3887,0.2935,0.6403
1764313236870,2.4921,3.2219,9.6556,-0.3887,0.2935,0.6403
1764313236880,2.4921,3.2219,9.6556,-0.3887,0.2935,0.6403
1764313236890,2.8845,3.731,10.0989,-0.3047,0.288,0.2509
1764313236900,2.8845,3.731,10.0989,0.0777,-0.1431,-0.285
1764313236910,2.074,3.1597,10.2395,0.0777,-0.1431,-0.285
1764313236920,2.074,3.1597,10.2395,0.0777,-0.1431,-0.285
1764313236930,2.074,3.1597,10.2395,0.4516,-0.4502,-0.568
1764313236940,0.9781,2.6722,9.7161,0.4516,-0.4502,-0.568
1764313236950,0.9781,2.6722,9.7161,0.5249,-0.5125,-0.5166
1764313236960,0.5073,2.5759,9.07,0.5249,-0.5125,-0.5166
1764313236970,0.5073,2.5759,9.07,0.3822,-0.4641,-0.3473
1764313236980,0.8076,2.8092,8.8259,0.3822,-0.4641,-0.3473
1764313236990,0.8076,2.8092,8.8259,0.186,-0.3662,-0.2512
1764313237000,1.3753,3.061,9.0018,0.186,-0.3662,-0.2512
1764313237010,1.3753,3.061,9.0018,0.0101,-0.2227,-0.3202
1764313237020,1.7767,3.195,9.4935,0.0101,-0.2227,-0.3202
1764313237030,1.7767,3.195,9.4935,0.0464,-0.1249,-0.4658
1764313237040,1.2808,3.21,8.863,0.0464,-0.1249,-0.4658
1764313237050,1.2808,3.21,8.863,0.0464,-0.1249,-0.4658
1764313237060,0.786,3.2889,8.5723,0.0313,-0.1469,-0.5269
1764313237070,0.786,3.2889,8.5723,0.0313,-0.1469,-0.5269
1764313237080,0.786,3.2889,8.5723,-0.0799,-0.3247,-0.5305
1764313237090,1.0959,3.0658,9.204,-0.0799,-0.3247,-0.5305
1764313237100,1.0959,3.0658,9.204,-0.0782,-0.3102,-0.5362
1764313237110,1.1803,2.9366,9.1244,-0.0782,-0.3102,-0.5362
1764313237120,1.1803,2.9366,9.1244,-0.1434,-0.2857,-0.5574
1764313237130,1.1521,2.7165,9.6323,-0.1434,-0.2857,-0.5574
1764313237140,1.1521,2.7165,9.6323,-0.1837,-0.1927,-0.5188
1764313237150,0.9906,2.5448,9.7179,-0.1837,-0.1927,-0.5188
1764313237160,0.9906,2.5448,9.7179,-0.1234,-0.1579,-0.4809
1764313237170,0.9571,2.5831,9.8572,-0.1234,-0.1579,-0.4809
1764313237180,0.9571,2.5831,9.8572,-0.1234,-0.1579,-0.4809
1764313237190,1.4357,3.0006,10.0241,-0.0403,-0.2181,-0.4308
1764313237200,1.4357,3.0006,10.0241,-0.0403,-0.2181,-0.4308
1764313237210,1.4357,3.0006,10.0241,0.0635,-0.168,-0.526
1764313237220,1.0193,2.9635,9.4678,0.0635,-0.168,-0.526
1764313237230,1.0193,2.9635,9.4678,0.0968,-0.2886,-0.5719
1764313237240,0.5109,2.79,9.5599,0.0968,-0.2886,-0.5719
1764313237250,0.5109,2.79,9.5599,0.1136,-0.3265,-0.4827
1764313237260,0.4211,2.674,9.807,0.1136,-0.3265,-0.4827
1764313237270,0.4211,2.674,9.807,0.1185,-0.2361,-0.3618
1764313237280,0.9266,2.8552,10.1868,0.1185,-0.2361,-0.3618
1764313237290,0.9266,2.8552,10.1868,0.1704,-0.04,-0.337
1764313237300,1.0804,2.9749,9.8088,0.1704,-0.04,-0.337
1764313237310,1.0804,2.9749,9.8088,0.1704,-0.04,-0.337
1764313237320,0.8028,3.1519,9.335,0.2068,0.0246,-0.3871
1764313237330,0.8028,3.1519,9.335,0.2068,0.0246,-0.3871
1764313237340,0.8028,3.1519,9.335,0.2853,-0.2166,-0.4421
1764313237350,0.9045,3.2608,9.2901,0.2853,-0.2166,-0.4421
1764313237360,0.9045,3.2608,9.2901,0.4362,-0.5133,-0.5194
1764313237370,0.9733,3.2668,9.5731,0.4362,-0.5133,-0.5194
1764313237380,0.9733,3.2668,9.5731,0.5667,-0.6139,-0.542
1764313237390,0.944,3.2925,9.3081,0.5667,-0.6139,-0.542
1764313237400,0.944,3.2925,9.3081,0.5797,-0.6026,-0.5359
1764313237410,0.6832,3.2602,8.5777,0.5797,-0.6026,-0.5359
1764313237420,0.6832,3.2602,8.5777,0.5192,-0.7488,-0.487
1764313237430,-0.2955,3.2381,8.2122,0.5192,-0.7488,-0.487
1764313237440,-0.2955,3.2381,8.2122,0.5192,-0.7488,-0.487
1764313237450,-0.1244,3.2734,8.4503,0.5394,-1.0867,-0.2837
1764313237460,-0.1244,3.2734,8.4503,0.5394,-1.0867,-0.2837
1764313237470,-0.1244,3.2734,8.4503,0.6006,-1.4149,-0.0295
1764313237480,0.8698,3.1615,9.1149,0.6006,-1.4149,-0.0295
1764313237490,0.8698,3.1615,9.1149,0.7333,-1.558,0.0727
1764313237500,1.5027,3.5809,9.3368,0.7333,-1.558,0.0727
1764313237510,1.5027,3.5809,9.3368,0.9132,-1.5898,0.0644
1764313237520,2.0435,4.1671,8.8935,0.9132,-1.5898,0.0644
1764313237530,2.0435,4.1671,8.8935,0.9781,-1.6116,-0.0015
1764313237540,2.3258,4.471,8.6489,0.9781,-1.6116,-0.0015
1764313237550,2.3258,4.471,8.6489,0.8489,-1.2538,-0.0105
1764313237560,2.8409,4.5643,8.9952,0.8489,-1.2538,-0.0105
1764313237570,2.8409,4.5643,8.9952,0.3018,0.0519,0.0967
1764313237580,2.8409,4.5643,8.9952,0.3018,0.0519,0.0967
1764313237590,4.3962,5.1715,10.0271,0.3018,0.0519,0.0967
1764313237600,4.3962,5.1715,10.0271,-0.8997,2.9325,0.1639
1764313237610,7.4195,6.0909,11.8618,-0.8997,2.9325,0.1639
1764313237620,7.4195,6.0909,11.8618,-2.6032,7.7684,-0.1933
1764313237630,8.5244,7.3334,9.9254,-2.6032,7.7684,-0.1933
1764313237640,8.5244,7.3334,9.9254,-4.536,12.9653,-0.7407
1764313237650,7.325,7.0552,4.9693,-4.536,12.9653,-0.7407
1764313237660,7.325,7.0552,4.9693,-5.8432,15.9341,-1.3337
1764313237670,3.88,5.3539,0.4104,-5.8432,15.9341,-1.3337
1764313237680,3.88,5.3539,0.4104,-5.3878,14.8768,-1.9073
1764313237690,-2.8301,2.1595,-2.2863,-5.3878,14.8768,-1.9073
1764313237700,-2.8301,2.1595,-2.2863,-2.9338,9.4015,-2.3436
1764313237710,-10.7468,-0.405,-4.2449,-2.9338,9.4015,-2.3436
1764313237720,-10.7468,-0.405,-4.2449,-2.9338,9.4015,-2.3436
1764313237730,-10.7468,-0.405,-4.2449,0.4081,1.1503,-2.5745
1764313237740,-14.0112,-3.2381,-1.3621,0.4081,1.1503,-2.5745
1764313237750,-14.0112,-3.2381,-1.3621,1.2599,-2.9128,-1.7917
1764313237760,-11.1446,-4.3244,6.1292,1.2599,-2.9128,-1.7917
1764313237770,-11.1446,-4.3244,6.1292,-0.1158,-1.007,-0.7773
1764313237780,-9.1454,-2.1362,7.7689,-0.1158,-1.007,-0.7773
1764313237790,-9.1454,-2.1362,7.7689,-0.9261,0.7613,-0.6232
1764313237800,-10.3514,-1.6427,6.3601,-0.9261,0.7613,-0.6232
1764313237810,-10.3514,-1.6427,6.3601,-0.321,-0.1785,-0.7329
1764313237820,-11.5418,-2.4347,6.8118,-0.321,-0.1785,-0.7329
1764313237830,-11.5418,-2.4347,6.8118,-0.321,-0.1785,-0.7329
1764313237840,-11.391,-2.7099,6.746,0.4641,-1.1947,-0.5406
1764313237850,-11.391,-2.7099,6.746,0.4641,-1.1947,-0.5406
1764313237860,-10.8682,-2.4467,5.9091,0.7114,-1.4077,-0.164
1764313237870,-10.8682,-2.4467,5.9091,0.7114,-1.4077,-0.164
1764313237880,-10.8682,-2.4467,5.9091,0.7984,-1.7135,0.1495
1764313237890,-10.0211,-1.8963,4.9256,0.7984,-1.7135,0.1495
1764313237900,-10.0211,-1.8963,4.9256,1.029,-2.7368,0.2656
1764313237910,-8.8056,-1.4195,4.2993,1.029,-2.7368,0.2656
1764313237920,-8.8056,-1.4195,4.2993,1.5485,-4.596,0.2225
1764313237930,-7.3328,-0.7789,4.9615,1.5485,-4.596,0.2225
1764313237940,-7.3328,-0.7789,4.9615,2.3892,-6.754,0.1416
1764313237950,-5.4497,-0.5779,7.2138,2.3892,-6.754,0.1416
1764313237960,-5.4497,-0.5779,7.2138,3.0774,-7.891,0.2118
1764313237970,-3.0275,0.1208,10.1055,3.0774,-7.891,0.2118
1764313237980,-3.0275,0.1208,10.1055,3.0774,-7.891,0.2118
1764313237990,-1.2012,1.1617,11.2259,3.262,-7.2169,0.2711
1764313238000,-1.2012,1.1617,11.2259,3.262,-7.2169,0.2711
1764313238010,-1.2012,1.1617,11.2259,2.8274,-5.3515,0.2755
1764313238020,-0.4199,1.8939,11.0632,2.8274,-5.3515,0.2755
1764313238030,-0.4199,1.8939,11.0632,1.9758,-3.0737,0.2717
1764313238040,-0.3817,2.339,10.1898,1.9758,-3.0737,0.2717
1764313238050,-0.3817,2.339,10.1898,1.1043,-1.2434,0.3606
1764313238060,-0.0544,2.8265,9.2985,1.1043,-1.2434,0.3606
1764313238070,-0.0544,2.8265,9.2985,0.5081,-0.2417,0.3419
1764313238080,-0.1448,3.0066,8.5232,0.5081,-0.2417,0.3419
1764313238090,-0.1448,3.0066,8.5232,0.3517,-0.254,0.1998
1764313238100,-0.8136,2.5813,8.6985,0.3517,-0.254,0.1998
1764313238110,-0.8136,2.5813,8.6985,0.607,-0.7938,0.1541
1764313238120,-1.0971,2.2481,8.9623,0.607,-0.7938,0.1541
1764313238130,-1.0971,2.2481,8.9623,0.607,-0.7938,0.1541
1764313238140,-0.81,2.3498,8.8678,0.8401,-1.1197,0.2503
1764313238150,-0.81,2.3498,8.8678,0.8401,-1.1197,0.2503
1764313238160,-0.81,2.3498,8.8678,0.686,-0.8757,0.4172
1764313238170,-0.1567,2.5017,8.656,0.686,-0.8757,0.4172
1764313238180,-0.1567,2.5017,8.656,0.2639,-0.3516,0.5386
1764313238190,0.6975,3.0544,9.0275,0.2639,-0.3516,0.5386
1764313238200,0.6975,3.0544,9.0275,0.0031,-0.0026,0.4672
1764313238210,1.0277,3.1765,9.603,0.0031,-0.0026,0.4672
1764313238220,1.0277,3.1765,9.603,0.0976,-0.0124,0.2833
1764313238230,1.0098,3.2794,9.7496,0.0976,-0.0124,0.2833
1764313238240,1.0098,3.2794,9.7496,0.3268,-0.1868,0.1184
1764313238250,-0.6114,2.4514,9.7675,0.3268,-0.1868,0.1184
1764313238260,-0.6114,2.4514,9.7675,0.3268,-0.1868,0.1184
1764313238270,-1.0828,2.7386,7.9029,0.5101,-0.0015,0.3312
1764313238280,-1.0828,2.7386,7.9029,0.5101,-0.0015,0.3312
1764313238290,-1.0828,2.7386,7.9029,0.122,-0.1362,0.794
1764313238300,0.0012,3.213,8.1691,0.122,-0.1362,0.794
1764313238310,0.0012,3.213,8.1691,-0.2254,-0.0864,0.9088
1764313238320,1.3753,3.3356,9.067,-0.2254,-0.0864,0.9088
1764313238330,1.3753,3.3356,9.067,-0.2987,-0.071,0.6982
1764313238340,2.0016,3.7902,10.3047,-0.2987,-0.071,0.6982
1764313238350,2.0016,3.7902,10.3047,-0.1312,0.0458,0.3642
1764313238360,1.3627,3.1472,10.5188,-0.1312,0.0458,0.3642
1764313238370,1.3627,3.1472,10.5188,0.068,0.1932,0.2335
1764313238380,0.4259,2.7978,9.7615,0.068,0.1932,0.2335
1764313238390,0.4259,2.7978,9.7615,0.068,0.1932,0.2335
1764313238400,0.1376,2.8319,8.9504,0.1985,0.1167,0.3041
1764313238410,0.1376,2.8319,8.9504,0.1985,0.1167,0.3041
1764313238420,0.1376,2.8319,8.9504,0.2092,-0.082,0.3932
1764313238430,0.3206,2.9384,9.067,0.2092,-0.082,0.3932
1764313238440,0.3206,2.9384,9.067,0.1765,-0.1616,0.4603
1764313238450,0.7358,2.8702,9.5647,0.1765,-0.1616,0.4603
1764313238460,0.7358,2.8702,9.5647,0.2051,-0.0241,0.4933
1764313238470,0.7023,3.0329,9.1059,0.2051,-0.0241,0.4933
1764313238480,0.7023,3.0329,9.1059,0.1179,0.1139,0.5153
1764313238490,0.5982,3.0993,8.8409,0.1179,0.1139,0.5153
1764313238500,0.5982,3.0993,8.8409,0.0243,0.1607,0.5279
1764313238510,0.6173,3.195,8.5914,0.0243,0.1607,0.5279
1764313238520,0.6173,3.195,8.5914,0.0243,0.1607,0.5279
1764313238530,0.6203,3.0993,8.4437,-0.038,0.1029,0.5154
1764313238540,0.6203,3.0993,8.4437,-0.038,0.1029,0.5154
1764313238550,0.6203,3.0993,8.4437,-0.161,0.0214,0.4946
1764313238560,0.6449,2.9922,8.7446,-0.161,0.0214,0.4946
1764313238570,0.6449,2.9922,8.7446,-0.2607,0.0096,0.5105
1764313238580,0.8154,3.058,9.6658,-0.2607,0.0096,0.5105
1764313238590,0.8154,3.058,9.6658,-0.3031,0.0788,0.482
1764313238600,1.1486,2.5591,11.4317,-0.3031,0.0788,0.482
1764313238610,1.1486,2.5591,11.4317,-0.0067,0.266,0.5153
1764313238620,1.1474,2.6166,11.1601,-0.0067,0.266,0.5153
1764313238630,1.1474,2.6166,11.1601,0.3268,0.2728,0.5096
1764313238640,0.8692,3.0455,10.0086,0.3268,0.2728,0.5096
1764313238650,0.8692,3.0455,10.0086,0.4727,0.0512,0.494
1764313238660,0.7035,3.1741,9.469,0.4727,0.0512,0.494
1764313238670,0.7035,3.1741,9.469,0.4727,0.0512,0.494
1764313238680,0.7035,3.1741,9.469,0.423,-0.0046,0.5044
1764313238690,0.6156,3.0485,9.4343,0.423,-0.0046,0.5044
1764313238700,0.6156,3.0485,9.4343,0.2805,0.1587,0.5582
1764313238710,0.7932,2.924,9.6778,0.2805,0.1587,0.5582
1764313238720,0.7932,2.924,9.6778,0.1987,0.4224,0.6052
1764313238730,0.9858,2.9013,9.664,0.1987,0.4224,0.6052
1764313238740,0.9858,2.9013,9.664,0.2361,0.5582,0.5959
1764313238750,1.0516,2.9803,9.128,0.2361,0.5582,0.5959
1764313238760,1.0516,2.9803,9.128,0.2598,0.5108,0.5515
1764313238770,0.9272,3.2052,8.4485,0.2598,0.5108,0.5515
1764313238780,0.9272,3.2052,8.4485,0.1994,0.321,0.4945
1764313238790,0.9272,3.2052,8.4485,0.1994,0.321,0.4945
1764313238800,0.5803,3.1442,8.6034,0.1994,0.321,0.4945
1764313238810,0.8148,3.055,9.1472,0.212,0.0785,0.4965
1764313238820,0.8148,3.055,9.1472,0.212,0.0785,0.4965
1764313238830,0.8148,3.055,9.1472,0.3522,-0.1011,0.4855
1764313238840,1.2718,3.3613,9.3739,0.3522,-0.1011,0.4855
1764313238850,1.2718,3.3613,9.3739,0.478,-0.0935,0.4187
1764313238860,1.0881,3.5569,8.9366,0.478,-0.0935,0.4187
1764313238870,1.0881,3.5569,8.9366,0.4589,-0.0197,0.3667
1764313238880,0.4834,3.4648,8.4897,0.4589,-0.0197,0.3667
1764313238890,0.4834,3.4648,8.4897,0.4365,-0.387,0.5128
1764313238900,0.5539,3.4044,9.0736,0.4365,-0.387,0.5128
1764313238910,0.5539,3.4044,9.0736,0.6193,-0.7205,0.5976
1764313238920,0.6957,3.253,8.9587,0.6193,-0.7205,0.5976
1764313238930,0.6957,3.253,8.9587,0.6193,-0.7205,0.5976
1764313238940,0.6957,3.253,8.9587,0.9749,-1.3815,0.6538
1764313238950,0.8548,2.93,8.7607,0.9749,-1.3815,0.6538
1764313238960,0.8548,2.93,8.7607,1.5375,-2.361,0.6535
1764313238970,1.2263,3.2381,7.9328,1.5375,-2.361,0.6535
1764313238980,1.2263,3.2381,7.9328,2.2822,-3.5448,0.5869
1764313238990,1.5254,3.8477,7.608,2.2822,-3.5448,0.5869
1764313239000,1.5254,3.8477,7.608,2.5574,-3.6568,0.7361
1764313239010,2.3928,4.1617,7.4303,2.5574,-3.6568,0.7361
1764313239020,2.3928,4.1617,7.4303,1.5632,-1.6405,1.1894
1764313239030,6.2201,5.3827,9.7723,1.5632,-1.6405,1.1894
1764313239040,6.2201,5.3827,9.7723,1.5632,-1.6405,1.1894
1764313239050,10.544,7.4907,9.0562,-1.3873,4.4028,1.5562
1764313239060,10.544,7.4907,9.0562,-1.3873,4.4028,1.5562
1764313239070,9.6323,8.2953,10.2108,-5.7495,11.7656,1.2141
1764313239080,9.6323,8.2953,10.2108,-5.7495,11.7656,1.2141
1764313239090,9.6323,8.2953,10.2108,-8.2662,17.0783,0.7608
1764313239100,7.9502,7.809,7.8377,-8.2662,17.0783,0.7608
1764313239110,7.9502,7.809,7.8377,-7.9138,17.7433,-0.1492
1764313239120,0.8441,4.0325,2.4168,-7.9138,17.7433,-0.1492
1764313239130,0.8441,4.0325,2.4168,-4.3439,11.5537,-1.0489
1764313239140,-6.9619,1.2203,-1.876,-4.3439,11.5537,-1.0489
1764313239150,-6.9619,1.2203,-1.876,-0.3264,2.4978,-1.9177
1764313239160,-11.479,-2.7793,-0.6377,-0.3264,2.4978,-1.9177
1764313239170,-11.479,-2.7793,-0.6377,1.055,-2.74,-1.5905
1764313239180,-10.2174,-5.1577,6.6652,1.055,-2.74,-1.5905
1764313239190,-10.2174,-5.1577,6.6652,1.055,-2.74,-1.5905
1764313239200,-7.5314,-3.5683,9.1801,0.1294,-1.7486,-0.5423
1764313239210,-7.5314,-3.5683,9.1801,0.1294,-1.7486,-0.5423
1764313239220,-7.6014,-2.4491,8.455,-0.9844,0.6205,-0.2372
1764313239230,-7.6014,-2.4491,8.455,-0.9844,0.6205,-0.2372
1764313239240,-7.6014,-2.4491,8.455,-0.8577,0.7524,-0.3642
1764313239250,-8.9539,-2.2187,7.9663,-0.8577,0.7524,-0.3642
1764313239260,-8.9539,-2.2187,7.9663,0.0861,-0.4261,-0.3997
1764313239270,-9.4881,-2.0943,7.3777,0.0861,-0.4261,-0.3997
1764313239280,-9.4881,-2.0943,7.3777,0.5278,-1.0473,-0.1614
1764313239290,-8.7422,-1.9573,6.655,0.5278,-1.0473,-0.1614
1764313239300,-8.7422,-1.9573,6.655,0.2902,-1.0545,0.0872
1764313239310,-7.8514,-1.7928,6.6616,0.2902,-1.0545,0.0872
1764313239320,-7.8514,-1.7928,6.6616,0.228,-1.4784,0.1526
1764313239330,-7.2999,-1.8269,7.145,0.228,-1.4784,0.1526
1764313239340,-7.2999,-1.8269,7.145,0.228,-1.4784,0.1526
1764313239350,-6.7125,-1.8156,7.7097,0.8951,-3.0244,0.0299
1764313239360,-6.7125,-1.8156,7.7097,0.8951,-3.0244,0.0299
1764313239370,-6.7125,-1.8156,7.7097,2.1977,-5.5323,-0.1538
1764313239380,-6.0108,-1.5009,8.4993,2.1977,-5.5323,-0.1538
1764313239390,-6.0108,-1.5009,8.4993,3.8546,-8.4687,-0.2825
1764313239400,-4.3723,-1.1474,10.4997,3.8546,-8.4687,-0.2825
1764313239410,-4.3723,-1.1474,10.4997,5.477,-10.2842,-0.2225
1764313239420,-0.8243,0.5438,11.5639,5.477,-10.2842,-0.2225
1764313239430,-0.8243,0.5438,11.5639,5.7879,-9.3591,-0.1142
1764313239440,1.4441,2.2289,11.75,5.7879,-9.3591,-0.1142
1764313239450,1.4441,2.2289,11.75,4.1075,-5.3061,0.2523
1764313239460,2.8869,3.0006,10.1677,4.1075,-5.3061,0.2523
1764313239470,2.8869,3.0006,10.1677,4.1075,-5.3061,0.2523
1764313239480,3.7597,4.1815,7.0481,1.1793,-0.018,0.6362
1764313239490,3.7597,4.1815,7.0481,1.1793,-0.018,0.6362
1764313239500,3.7597,4.1815,7.0481,-1.0704,2.7866,0.6106
1764313239510,2.9109,4.7839,6.0263,-1.0704,2.7866,0.6106
1764313239520,2.9109,4.7839,6.0263,-1.1237,1.7897,0.1113
1764313239530,1.4991,4.0756,8.0315,-1.1237,1.7897,0.1113
1764313239540,1.4991,4.0756,8.0315,0.3871,-0.5223,-0.3337
1764313239550,0.5731,2.68,9.6844,0.3871,-0.5223,-0.3337
1764313239560,0.5731,2.68,9.6844,1.3525,-1.4383,-0.2958
1764313239570,0.2381,2.1356,9.2638,1.3525,-1.4383,-0.2958
1764313239580,0.2381,2.1356,9.2638,1.1558,-0.8803,0.137
1764313239590,1.2646,2.8558,7.9741,1.1558,-0.8803,0.137
1764313239600,1.2646,2.8558,7.9741,1.1558,-0.8803,0.137
1764313239610,2.4933,4.014,7.9843,0.259,0.1126,0.3454
1764313239620,2.4933,4.014,7.9843,0.259,0.1126,0.3454
1764313239630,2.4933,4.014,7.9843,-0.2921,0.4742,0.1416
1764313239640,2.144,3.9302,8.8869,-0.2921,0.4742,0.1416
1764313239650,2.144,3.9302,8.8869,-0.0677,0.1032,-0.1086
1764313239660,1.9131,3.7902,9.2584,-0.0677,0.1032,-0.1086
1764313239670,1.9131,3.7902,9.2584,0.2625,-0.19,-0.2836
1764313239680,1.1294,3.3033,9.3093,0.2625,-0.19,-0.2836
1764313239690,1.1294,3.3033,9.3093,0.3651,0.0089,-0.2353
1764313239700,0.2201,2.7757,8.01,0.3651,0.0089,-0.2353
1764313239710,0.2201,2.7757,8.01,0.2382,0.0307,0.1597
1764313239720,0.9368,4.0026,6.7017,0.2382,0.0307,0.1597
1764313239730,0.9368,4.0026,6.7017,-0.1515,-0.4543,0.2674
1764313239740,0.9368,4.0026,6.7017,-0.1515,-0.4543,0.2674
1764313239750,2.2337,3.9021,8.2205,-0.1515,-0.4543,0.2674
1764313239760,2.2337,3.9021,8.2205,-0.2856,-0.4351,0.0896
1764313239770,2.9354,3.8871,9.6269,-0.2856,-0.4351,0.0896
1764313239780,2.9354,3.8871,9.6269,-0.1637,-0.2637,-0.1553
1764313239790,2.6668,3.7424,9.7561,-0.1637,-0.2637,-0.1553
1764313239800,2.6668,3.7424,9.7561,0.0308,-0.1982,-0.3273
1764313239810,1.9777,3.6598,9.4295,0.0308,-0.1982,-0.3273
1764313239820,1.9777,3.6598,9.4295,0.0935,-0.2352,-0.3734
1764313239830,1.7833,3.6066,9.4881,0.0935,-0.2352,-0.3734
1764313239840,1.7833,3.6066,9.4881,0.1093,-0.2049,-0.3558
1764313239850,1.8933,3.679,9.4786,0.1093,-0.2049,-0.3558
1764313239860,1.8933,3.679,9.4786,0.0983,-0.1445,-0.3656
1764313239870,1.9202,3.7244,9.3685,0.0983,-0.1445,-0.3656
1764313239880,1.9202,3.7244,9.3685,0.0983,-0.1445,-0.3656
1764313239890,1.9202,3.7244,9.3685,0.1271,-0.1439,-0.4079
1764313239900,1.9908,3.5521,9.6066,0.1271,-0.1439,-0.4079
1764313239910,1.9908,3.5521,9.6066,0.2969,-0.2718,-0.4724
1764313239920,1.4662,3.463,8.8857,0.2969,-0.2718,-0.4724
1764313239930,1.4662,3.463,8.8857,0.4333,-0.4572,-0.4392
1764313239940,1.3819,3.7932,7.8855,0.4333,-0.4572,-0.4392
1764313239950,1.3819,3.7932,7.8855,0.3054,-0.6209,-0.3984
1764313239960,1.6828,4.0522,7.9932,0.3054,-0.6209,-0.3984
1764313239970,1.6828,4.0522,7.9932,0.0736,-0.5508,-0.4216
1764313239980,2.4855,4.0331,8.9922,0.0736,-0.5508,-0.4216
1764313239990,2.4855,4.0331,8.9922,-0.0014,-0.2714,-0.4992
1764313240000,2.4263,3.9625,9.1011,-0.0014,-0.2714,-0.4992
1764313240010,2.4263,3.9625,9.1011,-0.0014,-0.2714,-0.4992
1764313240020,1.5135,3.6993,8.9665,0.0047,-0.1484,-0.6051
1764313240030,1.5135,3.6993,8.9665,0.0047,-0.1484,-0.6051
1764313240040,1.5135,3.6993,8.9665,0.0528,-0.2373,-0.5027
1764313240050,1.3771,3.7872,8.7595,0.0528,-0.2373,-0.5027
1764313240060,1.3771,3.7872,8.7595,0.0377,-0.3378,-0.379
1764313240070,1.946,4.0421,8.7559,0.0377,-0.3378,-0.379
1764313240080,1.946,4.0421,8.7559,-0.0396,-0.3114,-0.3793
1764313240090,2.15,4.0104,8.8552,-0.0396,-0.3114,-0.3793
1764313240100,2.15,4.0104,8.8552,-0.1246,-0.1704,-0.4099
1764313240110,2.1811,4.0313,8.7912,-0.1246,-0.1704,-0.4099
1764313240120,2.1811,4.0313,8.7912,-0.1246,-0.1704,-0.4099
1764313240130,1.9944,4.0134,8.8259,-0.1544,-0.1365,-0.4702
1764313240140,1.9944,4.0134,8.8259,-0.1544,-0.1365,-0.4702
1764313240150,1.8748,3.8381,9.1561,-0.0843,-0.2563,-0.535
1764313240160,1.8748,3.8381,9.1561,-0.0843,-0.2563,-0.535
1764313240170,1.8748,3.8381,9.1561,0.0806,-0.4641,-0.5675
1764313240180,2.0327,3.9242,9.3942,0.0806,-0.4641,-0.5675
1764313240190,2.0327,3.9242,9.3942,0.2585,-0.5574,-0.6127
1764313240200,2.208,4.0277,9.2249,0.2585,-0.5574,-0.6127
1764313240210,2.208,4.0277,9.2249,0.3436,-0.5753,-0.6727
1764313240220,2.0853,4.0935,8.863,0.3436,-0.5753,-0.6727
1764313240230,2.0853,4.0935,8.863,0.3905,-0.6319,-0.7007
1764313240240,1.9083,4.1378,8.6112,0.3905,-0.6319,-0.7007
1764313240250,1.9083,4.1378,8.6112,0.4504,-0.7834,-0.7085
1764313240260,1.7928,4.2209,8.4179,0.4504,-0.7834,-0.7085
1764313240270,1.7928,4.2209,8.4179,0.4959,-0.936,-0.7153
1764313240280,1.0564,3.9482,8.4879,0.4959,-0.936,-0.7153
1764313240290,1.0564,3.9482,8.4879,0.4959,-0.936,-0.7153
1764313240300,1.0564,3.9482,8.4879,0.542,-0.8885,-0.5667
1764313240310,0.4277,3.8512,7.943,0.542,-0.8885,-0.5667
1764313240320,0.4277,3.8512,7.943,0.529,-1.1571,-0.177
1764313240330,1.343,4.1904,8.0363,0.529,-1.1571,-0.177
1764313240340,1.343,4.1904,8.0363,0.6029,-1.4975,-0.0331
1764313240350,2.6788,4.8203,8.4598,0.6029,-1.4975,-0.0331
1764313240360,2.6788,4.8203,8.4598,0.6779,-1.467,-0.0838
1764313240370,3.1932,5.2367,7.8598,0.6779,-1.467,-0.0838
1764313240380,3.1932,5.2367,7.8598,0.6156,-1.4945,-0.1688
1764313240390,2.9013,5.1559,7.6552,0.6156,-1.4945,-0.1688
1764313240400,2.9013,5.1559,7.6552,0.6144,-1.6478,-0.1602
1764313240410,3.0006,5.0806,8.0172,0.6144,-1.6478,-0.1602
1764313240420,3.0006,5.0806,8.0172,0.6144,-1.6478,-0.1602
1764313240430,3.5761,5.3438,8.1691,0.6471,-1.5892,-0.1005
1764313240440,3.5761,5.3438,8.1691,0.6471,-1.5892,-0.1005
1764313240450,3.5761,5.3438,8.1691,0.502,-0.9836,-0.0458
1764313240460,4.7282,5.8834,7.925,0.502,-0.9836,-0.0458
1764313240470,4.7282,5.8834,7.925,-0.1442,0.5687,-0.0764
1764313240480,6.7872,6.7155,8.458,-0.1442,0.5687,-0.0764
1764313240490,6.7872,6.7155,8.458,-1.5183,3.8371,-0.3167
1764313240500,8.9456,7.6457,8.6734,-1.5183,3.8371,-0.3167
1764313240510,8.9456,7.6457,8.6734,-3.4445,8.65,-0.7908
1764313240520,10.2844,8.8947,6.2949,-3.4445,8.65,-0.7908
1764313240530,10.2844,8.8947,6.2949,-5.5036,13.5614,-1.5404
1764313240540,9.1759,8.5681,2.2433,-5.5036,13.5614,-1.5404
1764313240550,9.1759,8.5681,2.2433,-5.5036,13.5614,-1.5404
1764313240560,3.5384,5.0058,-2.4006,-6.5637,16.2218,-2.576
1764313240570,3.5384,5.0058,-2.4006,-6.5637,16.2218,-2.576
1764313240580,3.5384,5.0058,-2.4006,-6.5637,16.2218,-2.576
1764313240590,-5.4975,0.7741,-6.1603,-5.3371,13.7723,-3.2805
1764313240600,-5.4975,0.7741,-6.1603,-2.441,6.2666,-3.5054
1764313240610,-12.3601,-3.3039,-4.4901,-2.441,6.2666,-3.5054
1764313240620,-12.3601,-3.3039,-4.4901,0.1374,-1.5501,-3.1075
1764313240630,-13.2335,-7.0289,4.9693,0.1374,-1.5501,-3.1075
1764313240640,-13.2335,-7.0289,4.9693,1.0269,-3.7049,-1.8114
1764313240650,-10.1282,-5.6692,9.9858,1.0269,-3.7049,-1.8114
1764313240660,-10.1282,-5.6692,9.9858,0.0634,-1.3955,-1.0722
1764313240670,-8.9743,-3.6054,9.9194,0.0634,-1.3955,-1.0722
1764313240680,-8.9743,-3.6054,9.9194,0.0634,-1.3955,-1.0722
1764313240690,-10.6546,-3.1119,9.2375,-0.8399,0.6132,-0.972
1764313240700,-10.6546,-3.1119,9.2375,-0.8399,0.6132,-0.972
1764313240710,-10.6546,-3.1119,9.2375,-0.3577,0.2454,-0.8343
1764313240720,-11.741,-2.9037,9.2602,-0.3577,0.2454,-0.8343
1764313240730,-11.741,-2.9037,9.2602,0.697,-0.8603,-0.5008
1764313240740,-11.3593,-2.8014,8.4503,0.697,-0.8603,-0.5008
1764313240750,-11.3593,-2.8014,8.4503,1.139,-1.4171,-0.0194
1764313240760,-9.7567,-2.3563,7.8162,1.139,-1.4171,-0.0194
1764313240770,-9.7567,-2.3563,7.8162,1.0849,-1.5195,0.3444
1764313240780,-7.9394,-1.343,7.6361,1.0849,-1.5195,0.3444
1764313240790,-7.9394,-1.343,7.6361,1.062,-1.7358,0.3865
1764313240800,-7.3843,-1.0367,7.587,1.062,-1.7358,0.3865
1764313240810,-7.3843,-1.0367,7.587,1.4134,-2.5145,0.381
1764313240820,-6.9284,-0.9667,7.151,1.4134,-2.5145,0.381
1764313240830,-6.9284,-0.9667,7.151,1.4134,-2.5145,0.381
1764313240840,-6.9284,-0.9667,7.151,2.1953,-4.1542,0.3952
1764313240850,-5.4544,-0.2788,6.6826,2.1953,-4.1542,0.3952
1764313240860,-5.4544,-0.2788,6.6826,3.2692,-6.3764,0.2616
1764313240870,-3.2124,0.9888,7.876,3.2692,-6.3764,0.2616
1764313240880,-3.2124,0.9888,7.876,4.0386,-7.5387,0.0157
1764313240890,-1.4345,1.9346,9.6491,4.0386,-7.5387,0.0157
1764313240900,-1.4345,1.9346,9.6491,3.7136,-6.3272,-0.0536
1764313240910,-0.4594,2.4802,10.1396,3.7136,-6.3272,-0.0536
1764313240920,-0.4594,2.4802,10.1396,2.565,-3.8714,0.0759
1764313240930,0.0497,2.659,10.1294,2.565,-3.8714,0.0759
1764313240940,0.0497,2.659,10.1294,1.3421,-1.2996,0.3027
1764313240950,0.25,3.3912,8.1775,1.3421,-1.2996,0.3027
1764313240960,0.25,3.3912,8.1775,1.3421,-1.2996,0.3027
1764313240970,0.4959,3.9212,7.5356,0.4441,-0.1663,0.3728
1764313240980,0.4959,3.9212,7.5356,0.4441,-0.1663,0.3728
1764313240990,0.4959,3.9212,7.5356,0.3248,-0.4478,0.1617
1764313241000,0.332,3.5641,8.799,0.3248,-0.4478,0.1617
1764313241010,0.332,3.5641,8.799,0.653,-0.8334,0.0185
1764313241020,-0.1113,3.0245,9.4217,0.653,-0.8334,0.0185
1764313241030,-0.1113,3.0245,9.4217,0.7314,-0.5695,0.1263
1764313241040,-0.2201,2.9324,8.5938,0.7314,-0.5695,0.1263
1764313241050,-0.2201,2.9324,8.5938,0.3781,-0.0841,0.3322
1764313241060,0.2357,3.4044,8.2678,0.3781,-0.0841,0.3322
1764313241070,0.2357,3.4044,8.2678,0.0606,0.1842,0.3899
1764313241080,0.5916,3.7388,8.2247,0.0606,0.1842,0.3899
1764313241090,0.5916,3.7388,8.2247,0.0606,0.1842,0.3899
1764313241100,0.5916,3.7388,8.2247,0.0166,-0.0316,0.2978
1764313241110,0.6329,3.8285,9.0191,0.0166,-0.0316,0.2978
1764313241120,0.6329,3.8285,9.0191,0.1167,-0.1549,0.2118
1764313241130,0.7723,3.6532,9.2997,0.1167,-0.1549,0.2118
1764313241140,0.7723,3.6532,9.2997,0.1542,-0.0906,0.179
1764313241150,1.5972,3.9852,9.3978,0.1542,-0.0906,0.179
1764313241160,1.5972,3.9852,9.3978,0.0953,0.2633,0.0287
1764313241170,0.4223,3.5378,9.3141,0.0953,0.2633,0.0287
1764313241180,0.4223,3.5378,9.3141,0.0602,0.6904,0.1284
1764313241190,-0.8566,3.2429,7.8963,0.0602,0.6904,0.1284
1764313241200,-0.8566,3.2429,7.8963,-0.2812,0.8436,0.6077
1764313241210,-0.7244,3.7089,7.0014,-0.2812,0.8436,0.6077
1764313241220,-0.7244,3.7089,7.0014,-0.7245,0.2873,0.8268
1764313241230,0.5551,3.5139,9.2806,-0.7245,0.2873,0.8268
1764313241240,0.5551,3.5139,9.2806,-0.7245,0.2873,0.8268
1764313241250,0.5551,3.5139,9.2806,-0.5267,-0.0153,0.7017
1764313241260,1.5715,3.7723,11.0776,-0.5267,-0.0153,0.7017
1764313241270,1.5715,3.7723,11.0776,-0.0629,0.0284,0.3691
1764313241280,0.7908,3.4373,10.7025,-0.0629,0.0284,0.3691
1764313241290,0.7908,3.4373,10.7025,0.1863,0.087,0.2246
1764313241300,-0.0957,3.1167,9.8136,0.1863,0.087,0.2246
1764313241310,-0.0957,3.1167,9.8136,0.27,0.047,0.2885
1764313241320,-0.0335,3.259,9.3595,0.27,0.047,0.2885
1764313241330,-0.0335,3.259,9.3595,0.2556,0.0015,0.3439
1764313241340,0.2692,3.3368,9.5797,0.2556,0.0015,0.3439
1764313241350,0.2692,3.3368,9.5797,0.2556,0.0015,0.3439
1764313241360,0.2471,3.2351,9.5444,0.2553,0.1194,0.3645
1764313241370,0.2471,3.2351,9.5444,0.2553,0.1194,0.3645
1764313241380,0.2889,3.3051,9.2572,0.2564,0.2625,0.3987
1764313241390,0.2889,3.3051,9.2572,0.2564,0.2625,0.3987
1764313241400,0.2889,3.3051,9.2572,0.2476,0.3076,0.4209
1764313241410,0.0832,3.4457,8.6907,0.2476,0.3076,0.4209
1764313241420,0.0832,3.4457,8.6907,0.1819,0.2349,0.4482
1764313241430,0.0203,3.4092,8.6315,0.1819,0.2349,0.4482
1764313241440,0.0203,3.4092,8.6315,0.1086,0.1561,0.4869
1764313241450,-0.0826,3.3482,8.948,0.1086,0.1561,0.4869
1764313241460,-0.0826,3.3482,8.948,0.0941,0.1208,0.5484
1764313241470,0.2411,3.4487,9.1771,0.0941,0.1208,0.5484
1764313241480,0.2411,3.4487,9.1771,0.0939,0.1697,0.5675
1764313241490,0.4869,3.731,9.0772,0.0939,0.1697,0.5675
1764313241500,0.4869,3.731,9.0772,0.0939,0.1697,0.5675
1764313241510,0.396,3.5976,9.1759,0.0533,0.2181,0.5121
1764313241520,0.396,3.5976,9.1759,0.0533,0.2181,0.5121
1764313241530,0.396,3.5976,9.1759,0.0269,0.2141,0.4977
1764313241540,0.4959,3.5617,9.8183,0.0269,0.2141,0.4977
1764313241550,0.4959,3.5617,9.8183,0.1381,0.1817,0.4965
1764313241560,0.5109,3.6048,9.9876,0.1381,0.1817,0.4965
1764313241570,0.5109,3.6048,9.9876,0.3419,0.155,0.4827
1764313241580,0.2776,3.6915,9.3739,0.3419,0.155,0.4827
1764313241590,0.2776,3.6915,9.3739,0.425,-0.0035,0.5099
1764313241600,0.2166,3.7795,8.9444,0.425,-0.0035,0.5099
1764313241610,0.2166,3.7795,8.9444,0.4808,-0.2526,0.5499
1764313241620,0.7478,3.8602,9.1968,0.4808,-0.2526,0.5499
1764313241630,0.7478,3.8602,9.1968,0.4808,-0.2526,0.5499
1764313241640,0.6305,3.6335,9.2249,0.5809,-0.3432,0.5076
1764313241650,0.6305,3.6335,9.2249,0.5809,-0.3432,0.5076
1764313241660,0.6305,3.6335,9.2249,0.672,-0.3525,0.5264
1764313241670,0.1609,3.6144,8.7147,0.672,-0.3525,0.5264
1764313241680,0.1609,3.6144,8.7147,0.8045,-0.688,0.6794
1764313241690,0.1531,3.5976,8.4915,0.8045,-0.688,0.6794
1764313241700,0.1531,3.5976,8.4915,1.0977,-1.2989,0.8033
1764313241710,1.0205,3.8154,8.7643,1.0977,-1.2989,0.8033
1764313241720,1.0205,3.8154,8.7643,1.4525,-1.7802,0.776
1764313241730,1.943,4.084,8.9079,1.4525,-1.7802,0.776
1764313241740,1.943,4.084,8.9079,1.6028,-1.6739,0.7152
1764313241750,2.3133,4.3663,8.4455,1.6028,-1.6739,0.7152
1764313241760,2.3133,4.3663,8.4455,1.6028,-1.6739,0.7152
1764313241770,3.0329,4.8814,8.2409,1.4148,-1.0737,0.7671
1764313241780,3.0329,4.8814,8.2409,1.4148,-1.0737,0.7671
1764313241790,3.0329,4.8814,8.2409,0.6649,0.4798,0.868
1764313241800,5.4138,5.7314,9.3577,0.6649,0.4798,0.868
1764313241810,5.4138,5.7314,9.3577,-1.0059,4.1606,0.8745
1764313241820,8.9904,7.7994,9.5121,-1.0059,4.1606,0.8745
1764313241830,8.9904,7.7994,9.5121,-3.9915,10.2363,0.4305
1764313241840,9.6203,9.2842,6.7825,-3.9915,10.2363,0.4305
1764313241850,9.6203,9.2842,6.7825,-7.3618,16.5201,-0.2683
1764313241860,7.8209,8.75,2.7517,-7.3618,16.5201,-0.2683
1764313241870,7.8209,8.75,2.7517,-8.9721,19.1121,-1.2162
1764313241880,-0.0257,4.4255,-1.6164,-8.9721,19.1121,-1.2162
1764313241890,-0.0257,4.4255,-1.6164,-6.5301,13.6734,-1.5786
1764313241900,-9.1681,1.7677,-5.9456,-6.5301,13.6734,-1.5786
1764313241910,-9.1681,1.7677,-5.9456,-6.5301,13.6734,-1.5786
1764313241920,-13.2437,-2.8857,0.1161,-1.171,2.1218,-2.4277
1764313241930,-13.2437,-2.8857,0.1161,-1.171,2.1218,-2.4277
1764313241940,-13.2437,-2.8857,0.1161,2.0834,-4.6221,-2.0609
1764313241950,-11.0273,-6.0604,8.9288,2.0834,-4.6221,-2.0609
1764313241960,-11.0273,-6.0604,8.9288,1.1277,-2.1646,-0.708
1764313241970,-8.4963,-3.8225,7.1432,1.1277,-2.1646,-0.708
1764313241980,-8.4963,-3.8225,7.1432,-1.2894,1.3961,-0.3427
1764313241990,-10.4249,-2.7003,4.462,-1.2894,1.3961,-0.3427
1764313242000,-10.4249,-2.7003,4.462,-1.5687,0.826,-0.3302
1764313242010,-12.128,-2.7918,5.3198,-1.5687,0.826,-0.3302
1764313242020,-12.128,-2.7918,5.3198,-0.1028,-1.6423,-0.1506
1764313242030,-11.1541,-2.6207,6.1525,-0.1028,-1.6423,-0.1506
1764313242040,-11.1541,-2.6207,6.1525,-0.1028,-1.6423,-0.1506
1764313242050,-11.1541,-2.6207,6.1525,0.9247,-3.1595,0.1451
1764313242060,-9.6706,-2.211,5.2415,0.9247,-3.1595,0.1451
1764313242070,-9.6706,-2.211,5.2415,1.3825,-4.5593,0.3369
1764313242080,-8.1464,-1.5494,5.0106,1.3825,-4.5593,0.3369
1764313242090,-8.1464,-1.5494,5.0106,2.1046,-6.6994,0.2961
1764313242100,-5.3025,-0.7418,6.457,2.1046,-6.6994,0.2961
1764313242110,-5.3025,-0.7418,6.457,3.0513,-8.9721,-0.0136
1764313242120,-2.7386,0.0574,10.1468,3.0513,-8.9721,-0.0136
1764313242130,-2.7386,0.0574,10.1468,4.3115,-10.3678,-0.3545
1764313242140,0.3876,0.9619,11.9414,4.3115,-10.3678,-0.3545
1764313242150,0.3876,0.9619,11.9414,5.3312,-10.6593,-0.6933
1764313242160,2.1996,2.0261,14.3073,5.3312,-10.6593,-0.6933
1764313242170,2.1996,2.0261,14.3073,5.5644,-8.4699,-0.7683
1764313242180,1.4722,2.6925,12.6371,5.5644,-8.4699,-0.7683
1764313242190,1.4722,2.6925,12.6371,5.5644,-8.4699,-0.7683
1764313242200,1.4722,2.6925,12.6371,4.1753,-4.3174,-0.1138
1764313242210,1.7815,2.8415,8.0907,4.1753,-4.3174,-0.1138
1764313242220,1.7815,2.8415,8.0907,1.4855,-0.1171,0.7393
1764313242230,3.3769,4.3896,4.94,1.4855,-0.1171,0.7393
1764313242240,3.3769,4.3896,4.94,-0.6555,2.0255,0.9111
1764313242250,4.258,5.3874,4.873,-0.6555,2.0255,0.9111
1764313242260,4.258,5.3874,4.873,-1.212,1.7236,0.4388
1764313242270,3.5569,4.8939,7.2754,-1.212,1.7236,0.4388
1764313242280,3.5569,4.8939,7.2754,-0.4134,0.3992,-0.0389
1764313242290,2.2522,3.4564,8.951,-0.4134,0.3992,-0.0389
1764313242300,2.2522,3.4564,8.951,-0.4134,0.3992,-0.0389
1764313242310,1.6738,3.0897,8.4293,0.4846,-0.4383,-0.0759
1764313242320,1.6738,3.0897,8.4293,0.4846,-0.4383,-0.0759
1764313242330,2.5525,3.5809,7.8209,0.522,-0.3874,0.1752
1764313242340,2.5525,3.5809,7.8209,0.522,-0.3874,0.1752
1764313242350,2.5525,3.5809,7.8209,-0.0478,0.1946,0.2949
1764313242360,3.399,4.2879,8.0417,-0.0478,0.1946,0.2949
1764313242370,3.399,4.2879,8.0417,-0.5096,0.5764,0.1715
1764313242380,3.0664,4.2389,8.6925,-0.5096,0.5764,0.1715
1764313242390,3.0664,4.2389,8.6925,-0.4742,0.4238,0.0163
1764313242400,2.7326,3.8907,9.3015,-0.4742,0.4238,0.0163
1764313242410,2.7326,3.8907,9.3015,-0.1605,0.0719,-0.0858
1764313242420,2.6082,3.7837,9.1884,-0.1605,0.0719,-0.0858
1764313242430,2.6082,3.7837,9.1884,0.0843,-0.1885,-0.1542
1764313242440,2.2857,3.344,9.5169,0.0843,-0.1885,-0.1542
1764313242450,2.2857,3.344,9.5169,0.0843,-0.1885,-0.1542
1764313242460,2.2857,3.344,9.5169,0.1975,0.0846,-0.1298
1764313242470,1.6032,3.329,8.5328,0.1975,0.0846,-0.1298
1764313242480,1.6032,3.329,8.5328,0.0545,0.1135,0.2103
1764313242490,2.0339,3.8369,8.1565,0.0545,0.1135,0.2103
1764313242500,2.0339,3.8369,8.1565,-0.1822,-0.0221,0.3093
1764313242510,3.0389,3.8363,8.9031,-0.1822,-0.0221,0.3093
1764313242520,3.0389,3.8363,8.9031,-0.1319,-0.0925,0.1122
1764313242530,3.3326,4.0792,9.4289,-0.1319,-0.0925,0.1122
1764313242540,3.3326,4.0792,9.4289,0.1119,-0.2848,-0.1611
1764313242550,2.79,3.795,9.5121,0.1119,-0.2848,-0.1611
1764313242560,2.79,3.795,9.5121,0.1119,-0.2848,-0.1611
1764313242570,2.2816,3.6209,9.2429,0.3085,-0.3302,-0.2576
1764313242580,2.2816,3.6209,9.2429,0.3085,-0.3302,-0.2576
1764313242590,2.3593,3.7531,9.0796,0.3358,-0.2604,-0.2173
1764313242600,2.3593,3.7531,9.0796,0.3358,-0.2604,-0.2173
1764313242610,2.3593,3.7531,9.0796,0.3204,-0.1309,-0.1785
1764313242620,2.6925,3.9739,8.4245,0.3204,-0.1309,-0.1785
1764313242630,2.6925,3.9739,8.4245,0.2752,-0.1345,-0.2396
1764313242640,2.6734,4.0756,8.0046,0.2752,-0.1345,-0.2396
1764313242650,2.6734,4.0756,8.0046,0.1889,-0.2306,-0.3199
1764313242660,2.4503,3.8429,8.077,0.1889,-0.2306,-0.3199
1764313242670,2.4503,3.8429,8.077,0.1266,-0.2263,-0.3155
1764313242680,2.144,3.8273,7.395,0.1266,-0.2263,-0.3155
1764313242690,2.144,3.8273,7.395,0.0377,-0.3442,-0.2601
1764313242700,2.4849,4.2556,7.3232,0.0377,-0.3442,-0.2601
1764313242710,2.4849,4.2556,7.3232,0.0377,-0.3442,-0.2601
1764313242720,3.347,4.2766,8.5101,-0.1222,-0.4412,-0.2987
1764313242730,3.347,4.2766,8.5101,-0.1222,-0.4412,-0.2987
1764313242740,3.347,4.2766,8.5101,-0.2741,-0.0646,-0.3673
1764313242750,3.35,4.0642,8.9312,-0.2741,-0.0646,-0.3673
1764313242760,3.35,4.0642,8.9312,-0.4307,0.2905,-0.4307
1764313242770,2.6052,4.0475,9.5874,-0.4307,0.2905,-0.4307
1764313242780,2.6052,4.0475,9.5874,-0.4734,0.5721,-0.3908
1764313242790,2.6578,3.8465,10.2305,-0.4734,0.5721,-0.3908
1764313242800,2.6578,3.8465,10.2305,-0.4395,0.9429,-0.3398
1764313242810,3.0772,3.999,10.468,-0.4395,0.9429,-0.3398
1764313242820,3.0772,3.999,10.468,-0.5223,1.6463,-0.3554
1764313242830,2.9204,4.1157,9.7896,-0.5223,1.6463,-0.3554
1764313242840,2.9204,4.1157,9.7896,-0.5223,1.6463,-0.3554
1764313242850,1.809,3.8142,8.863,-0.8847,2.4945,-0.3932
1764313242860,1.809,3.8142,8.863,-0.8847,2.4945,-0.3932
1764313242870,0.3858,3.1525,8.348,-1.1154,2.7388,-0.427
1764313242880,0.3858,3.1525,8.348,-1.1154,2.7388,-0.427
1764313242890,0.3858,3.1525,8.348,-0.9084,2.1218,-0.4172
1764313242900,-0.6568,2.9306,8.2469,-0.9084,2.1218,-0.4172
1764313242910,-0.6568,2.9306,8.2469,-0.4588,1.0444,-0.4271
1764313242920,-0.5294,2.7344,8.7799,-0.4588,1.0444,-0.4271
1764313242930,-0.5294,2.7344,8.7799,-0.0205,0.1139,-0.5191
1764313242940,-0.1645,2.851,9.2746,-0.0205,0.1139,-0.5191
1764313242950,-0.1645,2.851,9.2746,0.3456,-0.5753,-0.6648
1764313242960,-0.4606,2.7565,9.46,0.3456,-0.5753,-0.6648
1764313242970,-0.4606,2.7565,9.46,0.5428,-0.9282,-0.6649
1764313242980,-0.5252,2.8445,9.4947,0.5428,-0.9282,-0.6649
1764313242990,-0.5252,2.8445,9.4947,0.5428,-0.9282,-0.6649
1764313243000,-0.5252,2.8445,9.4947,0.4875,-0.8558,-0.5777
1764313243010,-0.1352,3.1238,9.5665,0.4875,-0.8558,-0.5777
1764313243020,-0.1352,3.1238,9.5665,0.2822,-0.5116,-0.5408
1764313243030,0.0945,3.262,9.5647,0.2822,-0.5116,-0.5408
1764313243040,0.0945,3.262,9.5647,0.1669,-0.2246,-0.5591
1764313243050,-0.0365,3.277,9.2997,0.1669,-0.2246,-0.5591
1764313243060,-0.0365,3.277,9.2997,0.199,-0.287,-0.5709
1764313243070,-0.2955,3.1597,9.1298,0.199,-0.287,-0.5709
1764313243080,-0.2955,3.1597,9.1298,0.318,-0.5399,-0.5432
1764313243090,-0.1119,3.3864,9.1119,0.318,-0.5399,-0.5432
1764313243100,-0.1119,3.3864,9.1119,0.3994,-0.7034,-0.5464
1764313243110,-0.1119,3.3864,9.1119,0.3994,-0.7034,-0.5464
1764313243120,0.1424,3.5701,9.1615,0.3994,-0.7034,-0.5464
