Timestamp,ax,ay,az,gx,gy,gz
1764312975720,2.9384,7.5864,5.5753,0.5143,-0.0536,-0.1651
1764312975730,2.9384,7.5864,5.5753,0.5143,-0.0536,-0.1651
1764312975740,2.9384,7.5864,5.5753,0.6121,-0.3178,-0.2958
1764312975750,1.9968,7.3298,5.5579,0.6121,-0.3178,-0.2958
1764312975760,1.9968,7.3298,5.5579,0.7578,-0.5948,-0.2323
1764312975770,1.6098,7.252,5.336,0.7578,-0.5948,-0.2323
1764312975780,1.6098,7.252,5.336,0.7483,-0.5915,-0.0052
1764312975790,2.0243,7.3567,5.1015,0.7483,-0.5915,-0.0052
1764312975800,2.0243,7.3567,5.1015,0.4209,0.1492,0.2066
1764312975810,2.3067,7.4943,5.4843,0.4209,0.1492,0.2066
1764312975820,2.3067,7.4943,5.4843,-0.8383,2.9245,0.7433
1764312975830,4.2078,8.5005,4.2622,-0.8383,2.9245,0.7433
1764312975840,4.2078,8.5005,4.2622,-0.8383,2.9245,0.7433
1764312975850,6.7896,10.3484,3.1621,-3.7984,8.2285,1.2162
1764312975860,6.7896,10.3484,3.1621,-3.7984,8.2285,1.2162
1764312975870,6.7896,10.3484,3.1621,-7.581,14.6609,0.8825
1764312975880,6.9284,9.2859,0.3272,-7.581,14.6609,0.8825
1764312975890,6.9284,9.2859,0.3272,-9.6721,17.8876,-0.2384
1764312975900,2.8379,7.3107,0.3894,-9.6721,17.8876,-0.2384
1764312975910,2.8379,7.3107,0.3894,-7.9095,15.3724,-1.4358
1764312975920,-2.7099,4.605,-0.7675,-7.9095,15.3724,-1.4358
1764312975930,-2.7099,4.605,-0.7675,-3.5876,7.5573,-2.4257
1764312975940,-7.5482,1.6959,-2.4407,-3.5876,7.5573,-2.4257
1764312975950,-7.5482,1.6959,-2.4407,-0.0977,-1.0705,-2.9987
1764312975960,-10.3119,-2.7835,3.2524,-0.0977,-1.0705,-2.9987
1764312975970,-10.3119,-2.7835,3.2524,0.3648,-3.3204,-2.129
1764312975980,-8.01,-2.2331,6.8471,0.3648,-3.3204,-2.129
1764312975990,-8.01,-2.2331,6.8471,0.3648,-3.3204,-2.129
1764312976000,-7.0654,-1.2903,7.986,-1.0902,-1.2427,-1.5099
1764312976010,-7.0654,-1.2903,7.986,-1.0902,-1.2427,-1.5099
1764312976020,-7.0654,-1.2903,7.986,-1.9073,0.0907,-1.6069
1764312976030,-8.8343,-1.9639,9.2668,-1.9073,0.0907,-1.6069
1764312976040,-8.8343,-1.9639,9.2668,-1.2113,-0.7866,-1.7347
1764312976050,-10.7946,-3.1442,11.2223,-1.2113,-0.7866,-1.7347
1764312976060,-10.7946,-3.1442,11.2223,0.2182,-2.3439,-1.4302
1764312976070,-11.7613,-3.7866,12.1496,0.2182,-2.3439,-1.4302
1764312976080,-11.7613,-3.7866,12.1496,1.4481,-3.4845,-0.6628
1764312976090,-9.8824,-2.8415,11.388,1.4481,-3.4845,-0.6628
1764312976100,-9.8824,-2.8415,11.388,1.821,-3.7467,-0.0838
1764312976110,-6.947,-1.8915,11.1206,1.821,-3.7467,-0.0838
1764312976120,-6.947,-1.8915,11.1206,1.821,-3.7467,-0.0838
1764312976130,-5.3599,-1.1186,12.8052,1.6015,-3.4554,0.0512
1764312976140,-5.3599,-1.1186,12.8052,1.6015,-3.4554,0.0512
1764312976150,-5.3599,-1.1186,12.8052,1.916,-3.3746,-0.0179
1764312976160,-5.4114,-1.054,13.4991,1.916,-3.3746,-0.0179
1764312976170,-5.4114,-1.054,13.4991,2.9186,-3.9399,0.0742
1764312976180,-4.3149,-0.3697,12.3673,2.9186,-3.9399,0.0742
1764312976190,-4.3149,-0.3697,12.3673,4.2284,-5.2837,-0.0299
1764312976200,-3.009,0.8806,11.2493,4.2284,-5.2837,-0.0299
1764312976210,-3.009,0.8806,11.2493,5.5975,-6.7485,-0.2845
1764312976220,-1.4943,2.3486,9.3015,5.5975,-6.7485,-0.2845
1764312976230,-1.4943,2.3486,9.3015,5.8952,-7.0043,-0.4443
1764312976240,-0.4116,3.1382,7.6696,5.8952,-7.0043,-0.4443
1764312976250,-0.4116,3.1382,7.6696,5.1067,-5.744,-0.306
1764312976260,0.4289,4.267,6.4433,5.1067,-5.744,-0.306
1764312976270,0.4289,4.267,6.4433,5.1067,-5.744,-0.306
1764312976280,0.4289,4.267,6.4433,3.813,-3.6832,-0.004
1764312976290,1.7791,5.6201,4.5787,3.813,-3.6832,-0.004
1764312976300,1.7791,5.6201,4.5787,2.1024,-1.4357,0.1704
1764312976310,3.1011,6.877,2.994,2.1024,-1.4357,0.1704
1764312976320,3.1011,6.877,2.994,0.5815,0.0768,-0.002
1764312976330,2.9157,6.8207,3.454,0.5815,0.0768,-0.002
1764312976340,2.9157,6.8207,3.454,-0.0249,0.2479,-0.2706
1764312976350,2.2032,6.5163,4.8299,-0.0249,0.2479,-0.2706
1764312976360,2.2032,6.5163,4.8299,-0.0249,0.2479,-0.2706
1764312976370,1.8281,5.8899,6.6604,0.3488,-0.6787,-0.5089
1764312976380,1.8281,5.8899,6.6604,1.047,-1.4806,-0.5603
1764312976390,1.7001,5.7332,8.1033,1.047,-1.4806,-0.5603
1764312976400,1.7001,5.7332,8.1033,1.047,-1.4806,-0.5603
1764312976410,1.4548,5.7727,6.5133,1.3225,-0.9685,-0.3473
1764312976420,1.4548,5.7727,6.5133,1.3225,-0.9685,-0.3473
1764312976430,1.4548,5.7727,6.5133,0.7981,0.1565,0.0461
1764312976440,2.9222,6.8626,4.6295,0.7981,0.1565,0.0461
1764312976450,2.9222,6.8626,4.6295,-0.1588,1.0936,0.0964
1764312976460,3.7884,7.7988,5.0285,-0.1588,1.0936,0.0964
1764312976470,3.7884,7.7988,5.0285,-0.7059,1.5898,-0.1188
1764312976480,1.7934,6.7442,5.2558,-0.7059,1.5898,-0.1188
1764312976490,1.7934,6.7442,5.2558,-0.808,1.3408,0.0878
1764312976500,0.737,7.2108,5.4826,-0.808,1.3408,0.0878
1764312976510,0.737,7.2108,5.4826,-0.7373,0.6393,0.3328
1764312976520,1.7581,6.3039,7.0762,-0.7373,0.6393,0.3328
1764312976530,1.7581,6.3039,7.0762,-0.7373,0.6393,0.3328
1764312976540,1.7581,6.3039,7.0762,-0.3818,0.2172,0.3638
1764312976550,2.677,6.4235,7.7707,-0.3818,0.2172,0.3638
1764312976560,2.677,6.4235,7.7707,-0.0593,-0.0096,0.2462
1764312976570,2.9844,6.4923,7.815,-0.0593,-0.0096,0.2462
1764312976580,2.9844,6.4923,7.815,0.0741,0.0295,0.0828
1764312976590,2.8152,6.655,7.3161,0.0741,0.0295,0.0828
1764312976600,2.8152,6.655,7.3161,-0.0339,0.1782,-0.026
1764312976610,2.2235,6.5563,6.883,-0.0339,0.1782,-0.026
1764312976620,2.2235,6.5563,6.883,-0.1374,0.197,-0.057
1764312976630,1.5589,6.5755,6.874,-0.1374,0.197,-0.057
1764312976640,1.5589,6.5755,6.874,-0.1313,0.0536,-0.0032
1764312976650,1.9113,6.4397,7.273,-0.1313,0.0536,-0.0032
1764312976660,1.9113,6.4397,7.273,-0.1313,0.0536,-0.0032
1764312976670,1.7551,6.2058,6.74,-0.038,-0.0006,0.0029
1764312976680,1.7551,6.2058,6.74,-0.038,-0.0006,0.0029
1764312976690,1.7551,6.2058,6.74,-0.0258,-0.0678,0.0279
1764312976700,1.4261,6.0969,6.2148,-0.0258,-0.0678,0.0279
1764312976710,1.4261,6.0969,6.2148,-0.1373,-0.111,0.1158
1764312976720,1.4375,6.0634,6.2901,-0.1373,-0.111,0.1158
1764312976730,1.4375,6.0634,6.2901,-0.2863,-0.0825,0.1988
1764312976740,2.3994,6.4002,7.4351,-0.2863,-0.0825,0.1988
1764312976750,2.3994,6.4002,7.4351,-0.3887,0.1567,0.1807
1764312976760,3.3272,6.5946,7.9789,-0.3887,0.1567,0.1807
1764312976770,3.3272,6.5946,7.9789,-0.4111,0.3797,-0.005
1764312976780,2.8606,6.5198,8.6273,-0.4111,0.3797,-0.005
1764312976790,2.8606,6.5198,8.6273,-0.4111,0.3797,-0.005
1764312976800,2.8606,6.5198,8.6273,-0.1549,0.2848,-0.1364
1764312976810,2.0997,6.201,8.6495,-0.1549,0.2848,-0.1364
1764312976820,2.0997,6.201,8.6495,0.184,-0.0063,-0.1452
1764312976830,1.8281,6.0395,8.3635,0.184,-0.0063,-0.1452
1764312976840,1.8281,6.0395,8.3635,0.4459,-0.2193,-0.0878
1764312976850,1.6451,6.1866,7.5643,0.4459,-0.2193,-0.0878
1764312976860,1.6451,6.1866,7.5643,0.4288,-0.2495,0.0111
1764312976870,1.9017,6.3314,7.084,0.4288,-0.2495,0.0111
1764312976880,1.9017,6.3314,7.084,0.2666,-0.1003,0.0483
1764312976890,2.1218,6.5145,7.0457,0.2666,-0.1003,0.0483
1764312976900,2.1218,6.5145,7.0457,0.1338,0.0951,0.0286
1764312976910,2.0949,6.4546,6.9087,0.1338,0.0951,0.0286
1764312976920,2.0949,6.4546,6.9087,0.1191,0.0747,-0.0133
1764312976930,2.0387,6.3661,6.8943,0.1191,0.0747,-0.0133
1764312976940,2.0387,6.3661,6.8943,0.1191,0.0747,-0.0133
1764312976950,2.0387,6.3661,6.8943,0.1758,-0.0467,-0.0385
1764312976960,1.8963,6.3182,6.8931,0.1758,-0.0467,-0.0385
1764312976970,1.8963,6.3182,6.8931,0.2834,-0.2923,-0.0634
1764312976980,2.071,6.2853,7.6923,0.2834,-0.2923,-0.0634
1764312976990,2.071,6.2853,7.6923,0.4556,-0.3366,-0.0695
1764312977000,2.0375,6.2453,7.5296,0.4556,-0.3366,-0.0695
1764312977010,2.0375,6.2453,7.5296,0.4551,-0.1069,0.0038
1764312977020,2.0674,6.6299,6.524,0.4551,-0.1069,0.0038
1764312977030,2.0674,6.6299,6.524,0.3253,-0.0825,0.0408
1764312977040,2.1392,6.8405,6.3284,0.3253,-0.0825,0.0408
1764312977050,2.1392,6.8405,6.3284,0.3253,-0.0825,0.0408
1764312977060,2.275,6.9344,6.8518,0.3299,-0.3593,0.0026
1764312977070,2.275,6.9344,6.8518,0.3299,-0.3593,0.0026
1764312977080,2.613,6.9984,7.1192,0.5505,-0.7617,-0.1071
1764312977090,2.613,6.9984,7.1192,0.5505,-0.7617,-0.1071
1764312977100,2.613,6.9984,7.1192,0.7741,-0.9763,-0.2225
1764312977110,1.9944,6.5468,7.1773,0.7741,-0.9763,-0.2225
1764312977120,1.9944,6.5468,7.1773,0.8925,-0.7317,-0.1489
1764312977130,1.1647,6.4253,6.1801,0.8925,-0.7317,-0.1489
1764312977140,1.1647,6.4253,6.1801,0.7541,-0.5843,0.2135
1764312977150,2.0357,6.8662,5.1619,0.7541,-0.5843,0.2135
1764312977160,2.0357,6.8662,5.1619,0.6889,-0.927,0.2625
1764312977170,2.7631,7.343,5.3587,0.6889,-0.927,0.2625
1764312977180,2.7631,7.343,5.3587,0.9638,-1.5945,0.1057
1764312977190,3.1986,7.215,5.8277,0.9638,-1.5945,0.1057
1764312977200,3.1986,7.215,5.8277,0.9638,-1.5945,0.1057
1764312977210,3.3673,7.5392,5.7655,1.3525,-2.1481,-0.0234
1764312977220,3.3673,7.5392,5.7655,1.3525,-2.1481,-0.0234
1764312977230,3.3673,7.5392,5.7655,1.4786,-2.0666,-0.1643
1764312977240,3.0838,7.544,4.9244,1.4786,-2.0666,-0.1643
1764312977250,3.0838,7.544,4.9244,1.1722,-1.3967,-0.0829
1764312977260,3.1681,7.5727,3.9948,1.1722,-1.3967,-0.0829
1764312977270,3.1681,7.5727,3.9948,0.551,-0.1619,0.0475
1764312977280,2.9701,8.0004,3.6341,0.551,-0.1619,0.0475
1764312977290,2.9701,8.0004,3.6341,-0.5686,2.8182,0.2625
1764312977300,3.454,9.5073,0.6909,-0.5686,2.8182,0.2625
1764312977310,3.454,9.5073,0.6909,-3.7556,8.8432,0.5808
1764312977320,7.1198,10.9173,-7.3298,-3.7556,8.8432,0.5808
1764312977330,7.1198,10.9173,-7.3298,-3.7556,8.8432,0.5808
1764312977340,6.9643,9.463,-12.2524,-8.9061,15.0447,-0.1611
1764312977350,6.9643,9.463,-12.2524,-8.9061,15.0447,-0.1611
1764312977360,6.9643,9.463,-12.2524,-12.4867,17.7386,-2.1049
1764312977370,-0.4708,2.6572,-8.2343,-12.4867,17.7386,-2.1049
1764312977380,-0.4708,2.6572,-8.2343,-11.6411,14.8315,-3.4415
1764312977390,-7.794,-4.4907,-2.4138,-11.6411,14.8315,-3.4415
1764312977400,-7.794,-4.4907,-2.4138,-6.6163,5.7956,-4.0484
1764312977410,-13.4991,-10.8718,9.466,-6.6163,5.7956,-4.0484
1764312977420,-13.4991,-10.8718,9.466,-0.407,-2.6933,-3.4451
1764312977430,-15.3512,-12.1813,17.2427,-0.407,-2.6933,-3.4451
1764312977440,-15.3512,-12.1813,17.2427,2.0543,-3.7777,-1.6113
1764312977450,-12.0826,-7.8281,12.5192,2.0543,-3.7777,-1.6113
1764312977460,-12.0826,-7.8281,12.5192,0.2523,-0.978,-0.4357
1764312977470,-9.4881,-3.6897,9.9769,0.2523,-0.978,-0.4357
1764312977480,-9.4881,-3.6897,9.9769,0.2523,-0.978,-0.4357
1764312977490,-9.4881,-3.6897,9.9769,-1.5039,0.5658,-0.1315
1764312977500,-8.9282,-2.1314,13.1192,-1.5039,0.5658,-0.1315
1764312977510,-8.9282,-2.1314,13.1192,-0.8583,0.0531,-0.2124
1764312977520,-8.5005,-1.9537,14.4682,-0.8583,0.0531,-0.2124
1764312977530,-8.5005,-1.9537,14.4682,0.568,-0.796,-0.2202
1764312977540,-8.2666,-2.2337,12.3643,0.568,-0.796,-0.2202
1764312977550,-8.2666,-2.2337,12.3643,1.1202,-0.9516,0.0221
1764312977560,-7.6271,-2.342,9.9512,1.1202,-0.9516,0.0221
1764312977570,-7.6271,-2.342,9.9512,1.0979,-1.0696,0.3528
1764312977580,-6.1292,-1.6337,8.5436,1.0979,-1.0696,0.3528
1764312977590,-6.1292,-1.6337,8.5436,1.5881,-2.4338,0.3358
1764312977600,-6.1292,-1.6337,8.5436,1.5881,-2.4338,0.3358
1764312977610,-4.6433,-0.944,8.7894,1.5881,-2.4338,0.3358
1764312977620,-2.8618,-0.6096,10.4614,3.0432,-5.1221,-0.0964
1764312977630,-2.8618,-0.6096,10.4614,3.0432,-5.1221,-0.0964
1764312977640,-2.8618,-0.6096,10.4614,4.9679,-7.7879,-0.7411
1764312977650,-1.5254,0.2453,12.0215,4.9679,-7.7879,-0.7411
1764312977660,-1.5254,0.2453,12.0215,6.5422,-9.2613,-1.3563
1764312977670,-0.1226,1.2048,11.9097,6.5422,-9.2613,-1.3563
1764312977680,-0.1226,1.2048,11.9097,6.9849,-9.0336,-1.7555
1764312977690,0.8195,2.3468,9.7531,6.9849,-9.0336,-1.7555
1764312977700,0.8195,2.3468,9.7531,6.207,-7.6763,-1.8407
1764312977710,1.1934,3.8255,8.1529,6.207,-7.6763,-1.8407
1764312977720,1.1934,3.8255,8.1529,5.1087,-5.8683,-1.6179
1764312977730,0.8261,4.9137,6.2309,5.1087,-5.8683,-1.6179
1764312977740,0.8261,4.9137,6.2309,5.1087,-5.8683,-1.6179
1764312977750,0.8261,4.9137,6.2309,3.5626,-3.5274,-1.0087
1764312977760,1.8772,5.9976,2.9827,3.5626,-3.5274,-1.0087
1764312977770,1.8772,5.9976,2.9827,1.7523,-1.6692,-0.655
1764312977780,2.5687,6.804,2.8397,1.7523,-1.6692,-0.655
1764312977790,2.5687,6.804,2.8397,0.706,-0.8163,-0.5957
1764312977800,2.1374,6.4714,4.2796,0.706,-0.8163,-0.5957
1764312977810,2.1374,6.4714,4.2796,0.5095,-0.5382,-0.4925
1764312977820,1.3274,5.8588,5.263,0.5095,-0.5382,-0.4925
1764312977830,1.3274,5.8588,5.263,0.4545,-0.1139,-0.1327
1764312977840,1.6828,5.8798,4.7252,0.4545,-0.1139,-0.1327
1764312977850,1.6828,5.8798,4.7252,0.1083,0.4922,0.221
1764312977860,2.4808,6.3613,4.3184,0.1083,0.4922,0.221
1764312977870,2.4808,6.3613,4.3184,0.1083,0.4922,0.221
1764312977880,3.7741,6.7256,4.471,-0.407,1.0777,0.3887
1764312977890,3.7741,6.7256,4.471,-0.407,1.0777,0.3887
1764312977900,3.7741,6.7256,4.471,-0.9751,1.7071,0.2973
1764312977910,4.3896,6.8758,6.6532,-0.9751,1.7071,0.2973
1764312977920,4.3896,6.8758,6.6532,-1.4711,2.9844,0.2143
1764312977930,1.7515,5.4144,8.0937,-1.4711,2.9844,0.2143
1764312977940,1.7515,5.4144,8.0937,-1.9027,4.4443,0.8224
1764312977950,-0.1962,5.5819,7.3986,-1.9027,4.4443,0.8224
1764312977960,-0.1962,5.5819,7.3986,-2.6826,5.581,1.808
1764312977970,0.1184,5.6806,7.6008,-2.6826,5.581,1.808
1764312977980,0.1184,5.6806,7.6008,-3.0022,5.4197,2.2271
1764312977990,2.9653,6.277,8.6154,-3.0022,5.4197,2.2271
1764312978000,2.9653,6.277,8.6154,-3.0022,5.4197,2.2271
1764312978010,3.5815,5.8606,10.2431,-2.3984,4.1663,1.5991
1764312978020,3.5815,5.8606,10.2431,-2.3984,4.1663,1.5991
1764312978030,3.5815,5.8606,10.2431,-1.122,2.4981,0.6484
1764312978040,1.3035,4.6965,10.736,-1.122,2.4981,0.6484
1764312978050,1.3035,4.6965,10.736,0.1112,0.9482,0.2376
1764312978060,-0.1131,4.2676,9.466,0.1112,0.9482,0.2376
1764312978070,-0.1131,4.2676,9.466,0.8253,-0.2315,0.1822
1764312978080,-0.1496,4.8066,8.1805,0.8253,-0.2315,0.1822
1764312978090,-0.1496,4.8066,8.1805,0.8448,-0.6599,0.1868
1764312978100,0.5707,5.1523,7.7444,0.8448,-0.6599,0.1868
1764312978110,0.5707,5.1523,7.7444,0.4333,-0.3271,0.1614
1764312978120,0.7705,5.2146,7.9143,0.4333,-0.3271,0.1614
1764312978130,0.7705,5.2146,7.9143,0.1095,0.0722,0.1297
1764312978140,0.609,5.0136,8.0764,0.1095,0.0722,0.1297
1764312978150,0.609,5.0136,8.0764,0.1095,0.0722,0.1297
1764312978160,0.5773,5.1841,7.5978,0.0904,0.1061,0.1243
1764312978170,0.5773,5.1841,7.5978,0.0904,0.1061,0.1243
1764312978180,0.5773,5.1841,7.5978,0.16,-0.2245,0.0542
1764312978190,0.7789,5.2558,7.7946,0.16,-0.2245,0.0542
1764312978200,0.7789,5.2558,7.7946,0.2786,-0.4946,-0.0348
1764312978210,0.6347,5.1506,7.7085,0.2786,-0.4946,-0.0348
1764312978220,0.6347,5.1506,7.7085,0.1779,-0.4388,-0.0258
1764312978230,0.6347,5.1506,7.7085,0.1779,-0.4388,-0.0258
