Timestamp,ax,ay,az,gx,gy,gz
1764313243180,0.1819,3.8219,8.9665,0.1877,-0.3089,-0.495
1764313243190,0.1819,3.8219,8.9665,0.1875,-0.394,-0.4808
1764313243200,0.2644,3.7789,9.3188,0.1875,-0.394,-0.4808
1764313243210,0.2644,3.7789,9.3188,0.3024,-0.462,-0.526
1764313243220,0.2644,3.7789,9.3188,0.3024,-0.462,-0.526
1764313243230,-0.0401,3.6239,9.3835,0.4252,-0.5227,-0.425
1764313243240,-0.0945,3.7986,8.6782,0.4252,-0.5227,-0.425
1764313243250,-0.0945,3.7986,8.6782,0.4252,-0.5227,-0.425
1764313243260,0.1424,3.9541,8.9749,0.4895,-0.8974,-0.3532
1764313243270,0.1424,3.9541,8.9749,0.4895,-0.8974,-0.3532
1764313243280,0.1424,3.9541,8.9749,0.7355,-1.3784,-0.3354
1764313243290,0.4487,4.0134,9.0497,0.7355,-1.3784,-0.3354
1764313243300,0.4487,4.0134,9.0497,1.0806,-1.9484,-0.3777
1764313243310,0.2937,3.8776,9.1202,1.0806,-1.9484,-0.3777
1764313243320,0.2937,3.8776,9.1202,1.4639,-2.4025,-0.3476
1764313243330,0.0209,4.0295,8.6124,1.4639,-2.4025,-0.3476
1764313243340,0.0209,4.0295,8.6124,1.8422,-2.7539,-0.1497
1764313243350,0.8997,4.6391,8.6237,1.8422,-2.7539,-0.1497
1764313243360,0.8997,4.6391,8.6237,1.677,-1.8874,0.1269
1764313243370,3.6861,5.1703,10.136,1.677,-1.8874,0.1269
1764313243380,3.6861,5.1703,10.136,0.2437,1.8715,0.3137
1764313243390,7.0146,6.0156,10.5153,0.2437,1.8715,0.3137
1764313243400,7.0146,6.0156,10.5153,0.2437,1.8715,0.3137
1764313243410,7.0146,6.0156,10.5153,-2.3022,8.3181,0.2039
1764313243420,9.4211,9.0006,5.2678,-2.3022,8.3181,0.2039
1764313243430,9.4211,9.0006,5.2678,-5.3945,14.5444,-0.3685
1764313243440,11.6949,9.9129,1.4548,-5.3945,14.5444,-0.3685
1764313243450,11.6949,9.9129,1.4548,-7.3695,18.322,-1.4578
1764313243460,9.1872,8.7787,-2.6082,-7.3695,18.322,-1.4578
1764313243470,9.1872,8.7787,-2.6082,-5.7301,15.499,-2.9409
1764313243480,-1.8963,4.6851,-9.0437,-5.7301,15.499,-2.9409
1764313243490,-1.8963,4.6851,-9.0437,-1.5534,6.0824,-4.4185
1764313243500,-15.1502,-4.0696,-11.6901,-1.5534,6.0824,-4.4185
1764313243510,-15.1502,-4.0696,-11.6901,0.441,-3.4642,-3.7637
1764313243520,-16.4339,-10.1216,4.8371,0.441,-3.4642,-3.7637
1764313243530,-16.4339,-10.1216,4.8371,0.441,-3.4642,-3.7637
1764313243540,-11.0387,-6.4176,14.1404,0.0397,-4.0792,-1.6619
1764313243550,-11.0387,-6.4176,14.1404,0.0397,-4.0792,-1.6619
1764313243560,-11.0387,-6.4176,14.1404,-0.8375,-0.1342,-1.06
1764313243570,-11.7057,-4.1731,10.6116,-0.8375,-0.1342,-1.06
1764313243580,-11.7057,-4.1731,10.6116,-0.6875,0.5776,-0.9019
1764313243590,-13.2981,-3.2913,8.0094,-0.6875,0.5776,-0.9019
1764313243600,-13.2981,-3.2913,8.0094,0.5101,-1.4332,-0.6322
1764313243610,-11.8732,-2.1009,8.3569,0.5101,-1.4332,-0.6322
1764313243620,-11.8732,-2.1009,8.3569,1.3836,-2.7229,-0.3636
1764313243630,-10.8598,-1.8024,8.013,1.3836,-2.7229,-0.3636
1764313243640,-10.8598,-1.8024,8.013,1.5637,-3.0797,-0.0128
1764313243650,-9.6718,-1.8389,7.4548,1.5637,-3.0797,-0.0128
1764313243660,-9.6718,-1.8389,7.4548,1.5637,-3.0797,-0.0128
1764313243670,-7.8568,-1.4309,8.0674,1.8014,-3.8764,0.2833
1764313243680,-7.8568,-1.4309,8.0674,1.8014,-3.8764,0.2833
1764313243690,-7.8568,-1.4309,8.0674,2.5461,-5.3066,0.3813
1764313243700,-5.9713,-0.8106,8.7212,2.5461,-5.3066,0.3813
1764313243710,-5.9713,-0.8106,8.7212,3.3665,-6.5743,0.35
1764313243720,-4.9502,-0.3505,8.8929,3.3665,-6.5743,0.35
1764313243730,-4.9502,-0.3505,8.8929,3.8568,-7.1274,0.4575
1764313243740,-2.6991,0.3697,10.0439,3.8568,-7.1274,0.4575
1764313243750,-2.6991,0.3697,10.0439,3.6753,-6.0034,0.6281
1764313243760,-0.4241,2.0195,10.0337,3.6753,-6.0034,0.6281
1764313243770,-0.4241,2.0195,10.0337,2.6107,-3.6392,0.5492
1764313243780,-0.1944,2.7386,8.1643,2.6107,-3.6392,0.5492
1764313243790,-0.1944,2.7386,8.1643,2.6107,-3.6392,0.5492
1764313243800,-0.4433,2.9372,7.724,1.6997,-2.5079,0.4933
1764313243810,-0.4433,2.9372,7.724,1.6997,-2.5079,0.4933
1764313243820,-0.4433,2.9372,7.724,1.711,-2.7422,0.4436
1764313243830,0.6855,3.5432,8.8714,1.711,-2.7422,0.4436
1764313243840,0.6855,3.5432,8.8714,1.7972,-2.4315,0.3063
1764313243850,1.0499,3.5892,8.3192,1.7972,-2.4315,0.3063
1764313243860,1.0499,3.5892,8.3192,1.3511,-1.6509,0.3085
1764313243870,0.8901,3.262,7.9047,1.3511,-1.6509,0.3085
1764313243880,0.8901,3.262,7.9047,0.8577,-1.0007,0.4551
1764313243890,1.0881,3.6832,8.0734,0.8577,-1.0007,0.4551
1764313243900,1.0881,3.6832,8.0734,0.6417,-0.6539,0.5614
1764313243910,1.9783,4.2532,8.3785,0.6417,-0.6539,0.5614
1764313243920,1.9783,4.2532,8.3785,0.4548,-0.1416,0.5577
1764313243930,2.4837,4.6642,7.8544,0.4548,-0.1416,0.5577
1764313243940,2.4837,4.6642,7.8544,0.4548,-0.1416,0.5577
1764313243950,2.4837,4.6642,7.8544,0.0932,0.39,0.4571
1764313243960,2.2666,4.5476,7.2993,0.0932,0.39,0.4571
1764313243970,2.2666,4.5476,7.2993,-0.064,0.318,0.3755
1764313243980,1.7815,4.328,7.7701,-0.064,0.318,0.3755
1764313243990,1.7815,4.328,7.7701,0.0133,0.0764,0.4016
1764313244000,1.785,4.2867,8.123,0.0133,0.0764,0.4016
1764313244010,1.785,4.2867,8.123,-0.0266,0.0739,0.4507
1764313244020,2.2313,4.0403,9.2632,-0.0266,0.0739,0.4507
1764313244030,2.2313,4.0403,9.2632,-0.0452,0.3493,0.4888
1764313244040,2.653,4.3633,9.2345,-0.0452,0.3493,0.4888
1764313244050,2.653,4.3633,9.2345,-0.0183,0.4991,0.3968
1764313244060,2.6961,4.6134,8.4718,-0.0183,0.4991,0.3968
1764313244070,2.6961,4.6134,8.4718,-0.0183,0.4991,0.3968
1764313244080,2.9653,4.7934,9.4869,-0.1014,0.4542,0.2169
1764313244090,2.9653,4.7934,9.4869,-0.1014,0.4542,0.2169
1764313244100,2.9653,4.7934,9.4869,-0.2086,0.8384,0.0849
1764313244110,1.3621,3.9589,10.1204,-0.2086,0.8384,0.0849
1764313244120,1.3621,3.9589,10.1204,-0.126,1.0968,0.3444
1764313244130,0.2566,3.414,8.7069,-0.126,1.0968,0.3444
1764313244140,0.2566,3.414,8.7069,-0.1264,1.085,0.7115
1764313244150,0.3446,3.883,6.9763,-0.1264,1.085,0.7115
1764313244160,0.3446,3.883,6.9763,-0.2596,0.1822,0.8477
1764313244170,1.2981,3.8698,8.397,-0.2596,0.1822,0.8477
1764313244180,1.2981,3.8698,8.397,-0.0493,-0.449,0.719
1764313244190,2.2026,3.7837,10.0056,-0.0493,-0.449,0.719
1764313244200,2.2026,3.7837,10.0056,-0.0493,-0.449,0.719
1764313244210,2.2026,3.7837,10.0056,0.2691,-0.3285,0.5328
1764313244220,2.3767,3.9129,9.8668,0.2691,-0.3285,0.5328
1764313244230,2.3767,3.9129,9.8668,0.2911,0.1045,0.3865
1764313244240,1.9831,3.8542,9.2877,0.2911,0.1045,0.3865
1764313244250,1.9831,3.8542,9.2877,0.2508,0.3651,0.3215
1764313244260,1.6738,3.9165,8.8134,0.2508,0.3651,0.3215
1764313244270,1.6738,3.9165,8.8134,0.248,0.3131,0.3053
1764313244280,1.5733,3.9565,8.5436,0.248,0.3131,0.3053
1764313244290,1.5733,3.9565,8.5436,0.2353,0.2173,0.3015
1764313244300,1.4309,3.7663,8.5268,0.2353,0.2173,0.3015
1764313244310,1.4309,3.7663,8.5268,0.1733,0.2556,0.4021
1764313244320,1.9747,3.9434,8.3922,0.1733,0.2556,0.4021
1764313244330,1.9747,3.9434,8.3922,0.069,0.3981,0.4229
1764313244340,2.0692,4.0594,7.8006,0.069,0.3981,0.4229
1764313244350,2.0692,4.0594,7.8006,0.069,0.3981,0.4229
1764313244360,2.0692,4.0594,7.8006,0.0037,0.3435,0.341
1764313244370,1.8951,3.9129,8.2708,0.0037,0.3435,0.341
1764313244380,1.8951,3.9129,8.2708,-0.0107,0.2385,0.3259
1764313244390,1.882,3.8267,8.7242,-0.0107,0.2385,0.3259
1764313244400,1.882,3.8267,8.7242,-0.0159,0.3442,0.3334
1764313244410,2.3222,4.2479,8.9761,-0.0159,0.3442,0.3334
1764313244420,2.3222,4.2479,8.9761,-0.1509,0.6228,0.2841
1764313244430,2.6782,4.5386,9.4307,-0.1509,0.6228,0.2841
1764313244440,2.6782,4.5386,9.4307,-0.214,0.8082,0.1471
1764313244450,2.2989,4.3406,9.3847,-0.214,0.8082,0.1471
1764313244460,2.2989,4.3406,9.3847,-0.214,0.8082,0.1471
1764313244470,1.2808,3.9033,8.8074,-0.1197,0.7095,0.0591
1764313244480,1.2808,3.9033,8.8074,-0.1197,0.7095,0.0591
1764313244490,0.8411,3.935,8.5651,0.0064,0.3459,0.1333
1764313244500,0.8411,3.935,8.5651,0.0064,0.3459,0.1333
1764313244510,0.8411,3.935,8.5651,0.033,0.0434,0.2257
1764313244520,1.0875,3.9081,8.7416,0.033,0.0434,0.2257
1764313244530,1.0875,3.9081,8.7416,0.0147,-0.0669,0.2477
1764313244540,1.6367,4.0564,9.268,0.0147,-0.0669,0.2477
1764313244550,1.6367,4.0564,9.268,0.0837,-0.0121,0.1512
1764313244560,1.922,4.1378,9.3063,0.0837,-0.0121,0.1512
1764313244570,1.922,4.1378,9.3063,0.1022,0.137,0.0148
1764313244580,1.4578,4.124,8.9378,0.1022,0.137,0.0148
1764313244590,1.4578,4.124,8.9378,0.0585,0.219,-0.0308
1764313244600,1.1085,3.9942,8.6285,0.0585,0.219,-0.0308
1764313244610,1.1085,3.9942,8.6285,0.0585,0.219,-0.0308
1764313244620,1.1085,3.9942,8.6285,0.0232,0.2083,-0.024
1764313244630,0.9936,3.8686,8.5986,0.0232,0.2083,-0.024
1764313244640,0.9936,3.8686,8.5986,0.0272,0.1335,-0.0321
1764313244650,1.2502,3.813,8.8355,0.0272,0.1335,-0.0321
1764313244660,1.2502,3.813,8.8355,0.0389,0.1856,-0.0739
1764313244670,1.4967,3.8704,8.8068,0.0389,0.1856,-0.0739
1764313244680,1.4967,3.8704,8.8068,0.0011,0.3222,-0.1457
1764313244690,1.721,4.0726,8.6465,0.0011,0.3222,-0.1457
1764313244700,1.721,4.0726,8.6465,-0.0774,0.3838,-0.2572
1764313244710,1.1402,3.9482,8.7846,-0.0774,0.3838,-0.2572
1764313244720,1.1402,3.9482,8.7846,-0.0322,0.3945,-0.3204
1764313244730,-1.1886,3.1549,9.4786,-0.0322,0.3945,-0.3204
1764313244740,-1.1886,3.1549,9.4786,-0.0322,0.3945,-0.3204
1764313244750,0.3434,3.4828,8.4287,0.1831,0.673,0.0872
1764313244760,0.3434,3.4828,8.4287,0.1831,0.673,0.0872
1764313244770,0.3434,3.4828,8.4287,0.0406,0.2572,0.2601
1764313244780,1.1755,4.1097,9.9984,0.0406,0.2572,0.2601
1764313244790,1.1755,4.1097,9.9984,0.3688,-0.0312,0.1573
1764313244800,0.9535,4.3531,9.4881,0.3688,-0.0312,0.1573
1764313244810,0.9535,4.3531,9.4881,0.7285,-0.6965,0.0148
1764313244820,0.6251,4.1049,9.5055,0.7285,-0.6965,0.0148
1764313244830,0.6251,4.1049,9.5055,1.1051,-1.4083,0.0348
1764313244840,0.4247,3.993,8.9073,1.1051,-1.4083,0.0348
1764313244850,0.4247,3.993,8.9073,1.4105,-2.0091,0.1426
1764313244860,0.2554,3.9817,8.1182,1.4105,-2.0091,0.1426
1764313244870,0.2554,3.9817,8.1182,1.7633,-2.7932,0.213
1764313244880,0.396,3.7807,7.9795,1.7633,-2.7932,0.213
1764313244890,0.396,3.7807,7.9795,1.7633,-2.7932,0.213
1764313244900,0.396,3.7807,7.9795,2.3738,-3.6032,0.3977
1764313244910,2.2235,4.3777,9.4146,2.3738,-3.6032,0.3977
1764313244920,2.2235,4.3777,9.4146,1.969,-1.6504,0.764
1764313244930,8.5627,7.1515,10.8126,1.969,-1.6504,0.764
1764313244940,8.5627,7.1515,10.8126,-1.3329,5.7125,0.5625
1764313244950,17.549,12.5659,8.589,-1.3329,5.7125,0.5625
1764313244960,17.549,12.5659,8.589,-6.7501,16.2395,-1.1629
1764313244970,19.4596,13.4393,5.129,-6.7501,16.2395,-1.1629
1764313244980,19.4596,13.4393,5.129,-9.4185,23.0965,-3.1991
1764313244990,11.3821,7.2754,-2.9204,-9.4185,23.0965,-3.1991
1764313245000,11.3821,7.2754,-2.9204,-6.1038,18.9069,-4.2725
1764313245010,-7.7049,0.0299,-12.999,-6.1038,18.9069,-4.2725
1764313245020,-7.7049,0.0299,-12.999,-6.1038,18.9069,-4.2725
1764313245030,-21.338,-6.652,-11.2475,0.3957,4.5181,-4.1745
1764313245040,-21.338,-6.652,-11.2475,0.3957,4.5181,-4.1745
1764313245050,-21.338,-6.652,-11.2475,3.1128,-5.9113,-1.9261
1764313245060,-14.6471,-7.9238,5.1559,3.1128,-5.9113,-1.9261
1764313245070,-14.6471,-7.9238,5.1559,1.6171,-4.1817,0.3173
1764313245080,-4.529,0.0179,8.4592,1.6171,-4.1817,0.3173
1764313245090,-4.529,0.0179,8.4592,-0.4183,-0.2508,-0.3334
1764313245100,-6.7699,0.0861,6.8088,-0.4183,-0.2508,-0.3334
1764313245110,-6.7699,0.0861,6.8088,-0.5695,-0.1729,-0.969
1764313245120,-10.5858,-1.9513,7.8054,-0.5695,-0.1729,-0.969
1764313245130,-10.5858,-1.9513,7.8054,0.5391,-1.6052,-0.7456
1764313245140,-10.6493,-1.6624,8.4431,0.5391,-1.6052,-0.7456
1764313245150,-10.6493,-1.6624,8.4431,0.5391,-1.6052,-0.7456
1764313245160,-9.6126,-0.853,6.9248,1.3042,-2.1638,-0.4136
1764313245170,-9.6126,-0.853,6.9248,1.3042,-2.1638,-0.4136
1764313245180,-9.6126,-0.853,6.9248,1.1532,-2.1008,-0.2581
1764313245190,-9.5492,-0.8674,6.1244,1.1532,-2.1008,-0.2581
1764313245200,-9.5492,-0.8674,6.1244,0.9646,-2.62,-0.0783
1764313245210,-9.5916,-1.2096,6.3948,0.9646,-2.62,-0.0783
1764313245220,-9.5916,-1.2096,6.3948,1.4685,-4.2383,0.1712
1764313245230,-8.3958,-1.4058,6.478,1.4685,-4.2383,0.1712
1764313245240,-8.3958,-1.4058,6.478,2.6356,-7.0369,0.3598
1764313245250,-5.0172,-0.1161,7.6798,2.6356,-7.0369,0.3598
1764313245260,-5.0172,-0.1161,7.6798,4.3121,-10.0435,0.1355
1764313245270,-2.074,1.453,10.3896,4.3121,-10.0435,0.1355
1764313245280,-2.074,1.453,10.3896,4.3121,-10.0435,0.1355
1764313245290,0.3141,2.479,10.9783,5.6696,-10.8476,0.0119
1764313245300,0.3141,2.479,10.9783,5.6696,-10.8476,0.0119
1764313245310,0.3141,2.479,10.9783,5.0192,-8.0623,0.3028
1764313245320,2.8313,3.7328,7.4429,5.0192,-8.0623,0.3028
1764313245330,2.8313,3.7328,7.4429,2.6942,-4.5474,0.4342
1764313245340,4.7031,5.7523,5.3294,2.6942,-4.5474,0.4342
1764313245350,4.7031,5.7523,5.3294,1.0427,-2.6212,-0.0878
1764313245360,4.2718,6.402,6.4989,1.0427,-2.6212,-0.0878
1764313245370,4.2718,6.402,6.4989,0.5904,-1.6614,-0.4698
1764313245380,3.5922,5.2355,6.472,0.5904,-1.6614,-0.4698
1764313245390,3.5922,5.2355,6.472,-0.0556,-0.5232,-0.4467
1764313245400,2.7003,4.3472,7.5296,-0.0556,-0.5232,-0.4467
1764313245410,2.7003,4.3472,7.5296,-0.0556,-0.5232,-0.4467
1764313245420,2.7003,4.3472,7.5296,-0.5764,0.6,-0.1582
1764313245430,2.3844,4.1426,7.6522,-0.5764,0.6,-0.1582
1764313245440,2.3844,4.1426,7.6522,-0.7007,0.8827,0.0933
1764313245450,2.8774,4.5452,7.2185,-0.7007,0.8827,0.0933
1764313245460,2.8774,4.5452,7.2185,-0.5602,0.326,0.1003
1764313245470,3.5856,4.8299,8.4006,-0.5602,0.326,0.1003
1764313245480,3.5856,4.8299,8.4006,-0.3531,-0.0038,-0.0038
1764313245490,4.1456,4.9597,9.5474,-0.3531,-0.0038,-0.0038
1764313245500,4.1456,4.9597,9.5474,-0.3018,0.2917,-0.1301
1764313245510,4.0762,4.9149,9.4642,-0.3018,0.2917,-0.1301
1764313245520,4.0762,4.9149,9.4642,-0.5021,0.9056,-0.2457
1764313245530,2.4036,4.3346,8.528,-0.5021,0.9056,-0.2457
1764313245540,2.4036,4.3346,8.528,-0.6707,1.1102,-0.1663
1764313245550,1.1898,3.7723,8.0034,-0.6707,1.1102,-0.1663
1764313245560,1.1898,3.7723,8.0034,-0.6707,1.1102,-0.1663
1764313245570,1.1898,3.7723,8.0034,-0.4676,0.5794,0.0481
1764313245580,1.7306,4.5212,8.0195,-0.4676,0.5794,0.0481
1764313245590,1.7306,4.5212,8.0195,-0.1541,-0.2538,0.0231
1764313245600,2.586,4.203,8.8379,-0.1541,-0.2538,0.0231
1764313245610,2.586,4.203,8.8379,0.2075,-0.644,-0.1122
1764313245620,2.7308,4.0373,8.951,0.2075,-0.644,-0.1122
1764313245630,2.7308,4.0373,8.951,0.3285,-0.5805,-0.1663
1764313245640,2.7392,4.0678,8.7356,0.3285,-0.5805,-0.1663
1764313245650,2.7392,4.0678,8.7356,0.2162,-0.2482,-0.1823
1764313245660,2.6961,4.2784,8.546,0.2162,-0.2482,-0.1823
1764313245670,2.6961,4.2784,8.546,0.0284,0.0405,-0.1836
1764313245680,2.5639,4.55,8.26,0.0284,0.0405,-0.1836
1764313245690,2.5639,4.55,8.26,0.0284,0.0405,-0.1836
1764313245700,2.4867,4.6343,8.263,-0.0648,0.0539,-0.2396
1764313245710,2.4867,4.6343,8.263,-0.0648,0.0539,-0.2396
1764313245720,2.4867,4.6343,8.263,-0.0489,-0.0548,-0.3122
1764313245730,2.2098,4.2317,8.3539,-0.0489,-0.0548,-0.3122
1764313245740,2.2098,4.2317,8.3539,-0.0312,-0.0576,-0.3202
1764313245750,1.8251,3.8411,8.4742,-0.0312,-0.0576,-0.3202
1764313245760,1.8251,3.8411,8.4742,-0.0599,0.0157,-0.2107
1764313245770,1.9382,3.8495,8.7661,-0.0599,0.0157,-0.2107
1764313245780,1.9382,3.8495,8.7661,-0.1332,0.2442,-0.1248
1764313245790,2.1996,4.2174,8.7368,-0.1332,0.2442,-0.1248
1764313245800,2.1996,4.2174,8.7368,-0.2509,0.4578,-0.1277
1764313245810,2.388,4.4853,8.4915,-0.2509,0.4578,-0.1277
1764313245820,2.388,4.4853,8.4915,-0.2509,0.4578,-0.1277
1764313245830,1.9729,4.3884,8.4957,-0.4117,0.6729,-0.1929
1764313245840,1.9729,4.3884,8.4957,-0.4117,0.6729,-0.1929
1764313245850,1.9729,4.3884,8.4957,-0.4513,0.6364,-0.2622
1764313245860,1.4177,3.9733,9.0006,-0.4513,0.6364,-0.2622
1764313245870,1.4177,3.9733,9.0006,-0.266,0.4388,-0.2457
1764313245880,0.8602,3.5827,9.0293,-0.266,0.4388,-0.2457
1764313245890,0.8602,3.5827,9.0293,-0.1104,0.2291,-0.1388
1764313245900,0.6826,3.5204,8.7446,-0.1104,0.2291,-0.1388
1764313245910,0.6826,3.5204,8.7446,-0.0224,-0.0641,-0.0475
1764313245920,0.9159,3.5958,8.9109,-0.0224,-0.0641,-0.0475
1764313245930,0.9159,3.5958,8.9109,0.0732,-0.2995,-0.0218
1764313245940,1.2604,3.7394,9.1406,0.0732,-0.2995,-0.0218
1764313245950,1.2604,3.7394,9.1406,0.0732,-0.2995,-0.0218
1764313245960,1.5523,3.8632,9.0389,0.1355,-0.3439,-0.0434
1764313245970,1.5523,3.8632,9.0389,0.1355,-0.3439,-0.0434
1764313245980,1.5523,3.8632,9.0389,0.1167,-0.2616,-0.1045
1764313245990,1.6241,4.1761,8.6477,0.1167,-0.2616,-0.1045
1764313246000,1.6241,4.1761,8.6477,0.0609,-0.2721,-0.1872
1764313246010,1.3513,3.9559,9.0766,0.0609,-0.2721,-0.1872
1764313246020,1.3513,3.9559,9.0766,0.1167,-0.2491,-0.1538
1764313246030,1.5733,3.7837,9.5175,0.1167,-0.2491,-0.1538
1764313246040,1.5733,3.7837,9.5175,0.256,-0.2262,-0.0993
1764313246050,1.7623,4.0439,9.2172,0.256,-0.2262,-0.0993
1764313246060,1.7623,4.0439,9.2172,0.3671,-0.3146,-0.0875
1764313246070,1.4656,3.9721,8.6178,0.3671,-0.3146,-0.0875
1764313246080,1.4656,3.9721,8.6178,0.3415,-0.3403,0.0176
1764313246090,1.5733,3.9685,8.68,0.3415,-0.3403,0.0176
1764313246100,1.5733,3.9685,8.68,0.3415,-0.3403,0.0176
1764313246110,2.0495,4.1856,8.8457,0.1582,-0.0771,0.1805
1764313246120,2.0495,4.1856,8.8457,0.1582,-0.0771,0.1805
1764313246130,2.0495,4.1856,8.8457,0.0145,0.1506,0.2417
1764313246140,2.4275,4.4572,9.0628,0.0145,0.1506,0.2417
1764313246150,2.4275,4.4572,9.0628,0.0785,0.1206,0.181
1764313246160,2.6387,4.5894,8.9982,0.0785,0.1206,0.181
1764313246170,2.6387,4.5894,8.9982,0.2593,-0.0747,0.0444
1764313246180,2.2923,4.4207,8.9222,0.2593,-0.0747,0.0444
1764313246190,2.2923,4.4207,8.9222,0.3477,-0.2078,0.0075
1764313246200,2.0614,4.3914,9.1119,0.3477,-0.2078,0.0075
1764313246210,2.0614,4.3914,9.1119,0.4264,-0.2471,0.0389
1764313246220,2.1344,4.4518,9.0449,0.4264,-0.2471,0.0389
1764313246230,2.1344,4.4518,9.0449,0.4264,-0.2471,0.0389
1764313246240,1.6241,4.3274,8.5843,0.5534,-0.2796,0.0108
1764313246250,1.6241,4.3274,8.5843,0.5534,-0.2796,0.0108
1764313246260,1.6241,4.3274,8.5843,0.7646,-0.611,0.0505
1764313246270,1.3878,4.3741,8.059,0.7646,-0.611,0.0505
1764313246280,1.3878,4.3741,8.059,1.1165,-1.3418,0.1013
1764313246290,1.4118,4.4351,7.5817,1.1165,-1.3418,0.1013
1764313246300,1.4118,4.4351,7.5817,1.6664,-2.3385,0.0608
1764313246310,1.8616,4.6337,7.0385,1.6664,-2.3385,0.0608
1764313246320,1.8616,4.6337,7.0385,2.1383,-2.9166,0.0182
1764313246330,2.7888,5.467,7.1677,2.1383,-2.9166,0.0182
1764313246340,2.7888,5.467,7.1677,1.4745,-1.261,0.2702
1764313246350,5.3647,6.5581,8.4431,1.4745,-1.261,0.2702
1764313246360,5.3647,6.5581,8.4431,1.4745,-1.261,0.2702
1764313246370,5.3647,6.5581,8.4431,-1.4421,4.4245,0.7891
1764313246380,9.5827,8.5071,7.5003,-1.4421,4.4245,0.7891
1764313246390,9.5827,8.5071,7.5003,-6.3644,12.4674,0.6677
1764313246400,9.8572,9.6299,6.4014,-6.3644,12.4674,0.6677
1764313246410,9.8572,9.6299,6.4014,-9.9136,19.0535,-0.1057
1764313246420,5.5292,7.4626,2.9587,-9.9136,19.0535,-0.1057
1764313246430,5.5292,7.4626,2.9587,-9.925,20.048,-1.0195
1764313246440,-3.746,2.1057,-2.8301,-9.925,20.048,-1.0195
1764313246450,-3.746,2.1057,-2.8301,-5.8637,11.9003,-1.3515
1764313246460,-11.7643,-0.9655,-3.6,-5.8637,11.9003,-1.3515
1764313246470,-11.7643,-0.9655,-3.6,-0.2107,0.2514,-1.7335
1764313246480,-13.4189,-4.8018,3.4158,-0.2107,0.2514,-1.7335
1764313246490,-13.4189,-4.8018,3.4158,2.5884,-4.859,-0.932
1764313246500,-9.7837,-5.1266,7.8676,2.5884,-4.859,-0.932
1764313246510,-9.7837,-5.1266,7.8676,2.5884,-4.859,-0.932
1764313246520,-9.7837,-5.1266,7.8676,1.1971,-2.5191,0.0593
1764313246530,-7.191,-2.4311,6.274,1.1971,-2.5191,0.0593
1764313246540,-7.191,-2.4311,6.274,-1.168,0.3525,0.126
1764313246550,-8.5603,-1.4393,6.0694,-1.168,0.3525,0.126
1764313246560,-8.5603,-1.4393,6.0694,-1.3253,-0.2457,-0.0324
1764313246570,-10.13,-1.8634,7.7258,-1.3253,-0.2457,-0.0324
1764313246580,-10.13,-1.8634,7.7258,0.4433,-2.9654,0.0084
1764313246590,-9.7962,-1.9083,7.075,0.4433,-2.9654,0.0084
1764313246600,-9.7962,-1.9083,7.075,2.2688,-6.2404,0.1814
1764313246610,-6.8979,-1.1163,6.9057,2.2688,-6.2404,0.1814
1764313246620,-6.8979,-1.1163,6.9057,3.7043,-9.243,0.0518
1764313246630,-3.5001,0.402,9.1406,3.7043,-9.243,0.0518
1764313246640,-3.5001,0.402,9.1406,3.7043,-9.243,0.0518
1764313246650,0.0287,1.1133,12.8381,4.8054,-10.8622,-0.1701
1764313246660,0.0287,1.1133,12.8381,4.8054,-10.8622,-0.1701
1764313246670,0.0287,1.1133,12.8381,4.995,-9.5603,-0.2324
1764313246680,1.5733,1.7659,13.6517,4.995,-9.5603,-0.2324
1764313246690,1.5733,1.7659,13.6517,4.0842,-6.3458,-0.0519
1764313246700,2.2672,2.3575,11.2911,4.0842,-6.3458,-0.0519
1764313246710,2.2672,2.3575,11.2911,2.7562,-3.2756,0.1573
1764313246720,2.7242,3.6945,7.8293,2.7562,-3.2756,0.1573
1764313246730,2.7242,3.6945,7.8293,1.5079,-1.2785,0.1874
1764313246740,2.4598,4.3406,5.7954,1.5079,-1.2785,0.1874
1764313246750,2.4598,4.3406,5.7954,0.4887,-0.2677,0.1419
1764313246760,1.9238,4.0869,5.875,0.4887,-0.2677,0.1419
1764313246770,1.9238,4.0869,5.875,0.4887,-0.2677,0.1419
1764313246780,1.9238,4.0869,5.875,0.0186,-0.1097,0.1526
1764313246790,1.3035,3.3069,7.1462,0.0186,-0.1097,0.1526
1764313246800,1.3035,3.3069,7.1462,0.1533,-0.4212,0.2921
1764313246810,1.4692,2.9815,8.1374,0.1533,-0.4212,0.2921
1764313246820,1.4692,2.9815,8.1374,0.4814,-0.6973,0.4869
1764313246830,2.5268,3.1645,8.3001,0.4814,-0.6973,0.4869
1764313246840,2.5268,3.1645,8.3001,0.5244,-0.5447,0.5988
1764313246850,3.7825,3.9368,8.2349,0.5244,-0.5447,0.5988
1764313246860,3.7825,3.9368,8.2349,0.1303,0.0841,0.5993
1764313246870,4.4207,4.5523,7.9555,0.1303,0.0841,0.5993
1764313246880,4.4207,4.5523,7.9555,-0.4383,0.7211,0.5063
1764313246890,3.868,4.5338,8.5597,-0.4383,0.7211,0.5063
1764313246900,3.868,4.5338,8.5597,-0.4383,0.7211,0.5063
1764313246910,3.5288,4.2335,9.2249,-0.5983,0.8665,0.4187
1764313246920,3.5288,4.2335,9.2249,-0.5983,0.8665,0.4187
1764313246930,3.5288,4.2335,9.2249,-0.299,0.4963,0.3315
1764313246940,3.6335,4.0259,9.6317,-0.299,0.4963,0.3315
1764313246950,3.6335,4.0259,9.6317,0.2048,-0.0695,0.2123
1764313246960,3.7842,3.9069,9.6251,0.2048,-0.0695,0.2123
1764313246970,3.7842,3.9069,9.6251,0.4404,-0.1761,0.1361
1764313246980,3.7316,3.8489,8.8451,0.4404,-0.1761,0.1361
1764313246990,3.7316,3.8489,8.8451,0.2963,0.0194,0.1399
1764313247000,3.923,3.9165,8.6752,0.2963,0.0194,0.1399
1764313247010,3.923,3.9165,8.6752,0.0195,0.4181,0.0967
1764313247020,4.4237,4.331,9.2632,0.0195,0.4181,0.0967
1764313247030,4.4237,4.331,9.2632,0.0195,0.4181,0.0967
1764313247040,2.8152,3.2668,10.1647,-0.1778,1.0391,-0.0698
1764313247050,2.8152,3.2668,10.1647,-0.1778,1.0391,-0.0698
1764313247060,2.8152,3.2668,10.1647,-0.0441,1.7999,0.0964
1764313247070,1.5888,3.6526,7.5553,-0.0441,1.7999,0.0964
1764313247080,1.5888,3.6526,7.5553,-0.3056,1.6353,0.5321
1764313247090,2.318,4.2365,6.5456,-0.3056,1.6353,0.5321
1764313247100,2.318,4.2365,6.5456,-0.6631,1.073,0.5059
1764313247110,2.6895,4.2341,8.2983,-0.6631,1.073,0.5059
1764313247120,2.6895,4.2341,8.2983,-0.3797,0.5586,0.1446
1764313247130,2.6243,3.865,9.1466,-0.3797,0.5586,0.1446
1764313247140,2.6243,3.865,9.1466,0.1338,-0.0397,-0.1425
1764313247150,2.3258,3.6084,9.4068,0.1338,-0.0397,-0.1425
1764313247160,2.3258,3.6084,9.4068,0.3341,-0.0515,-0.2735
1764313247170,1.5218,3.3565,8.4867,0.3341,-0.0515,-0.2735
1764313247180,1.5218,3.3565,8.4867,0.3341,-0.0515,-0.2735
1764313247190,1.5218,3.3565,8.4867,0.1075,0.1468,-0.197
1764313247200,0.9505,3.4092,8.1147,0.1075,0.1468,-0.197
1764313247210,0.9505,3.4092,8.1147,-0.1442,0.1048,-0.093
1764313247220,1.2347,3.4427,8.7529,-0.1442,0.1048,-0.093
1764313247230,1.2347,3.4427,8.7529,-0.0307,-0.1952,-0.0822
1764313247240,1.6732,3.5545,9.3482,-0.0307,-0.1952,-0.0822
1764313247250,1.6732,3.5545,9.3482,0.1767,-0.3471,-0.1571
1764313247260,1.7599,3.4552,9.2812,0.1767,-0.3471,-0.1571
1764313247270,1.7599,3.4552,9.2812,0.1936,-0.225,-0.1718
1764313247280,1.6786,3.5163,8.796,0.1936,-0.225,-0.1718
1764313247290,1.6786,3.5163,8.796,0.0812,-0.0866,-0.142
1764313247300,1.7258,3.6,8.7721,0.0812,-0.0866,-0.142
1764313247310,1.7258,3.6,8.7721,0.0812,-0.0866,-0.142
1764313247320,1.7581,3.7872,8.6046,-0.0373,0.0341,-0.1077
1764313247330,1.7581,3.7872,8.6046,-0.0373,0.0341,-0.1077
1764313247340,1.7581,3.7872,8.6046,-0.1019,0.0319,-0.1103
1764313247350,2.0022,3.8429,8.9091,-0.1019,0.0319,-0.1103
1764313247360,2.0022,3.8429,8.9091,-0.0794,0.0255,-0.1542
1764313247370,1.9226,3.7454,8.7948,-0.0794,0.0255,-0.1542
1764313247380,1.9226,3.7454,8.7948,-0.0376,-0.0385,-0.1936
1764313247390,2.2409,3.8477,9.0419,-0.0376,-0.0385,-0.1936
1764313247400,2.2409,3.8477,9.0419,0.0599,-0.1162,-0.2874
1764313247410,1.8485,3.7406,8.8259,0.0599,-0.1162,-0.2874
1764313247420,1.8485,3.7406,8.8259,0.066,-0.1052,-0.2947
1764313247430,1.5715,3.588,9.1502,0.066,-0.1052,-0.2947
1764313247440,1.5715,3.588,9.1502,0.066,-0.1052,-0.2947
1764313247450,1.87,3.8082,9.3924,0.0353,-0.0431,-0.223
1764313247460,1.87,3.8082,9.3924,0.0353,-0.0431,-0.223
1764313247470,1.87,3.8082,9.3924,0.0658,-0.0131,-0.2459
1764313247480,1.7958,3.8201,9.2668,0.0658,-0.0131,-0.2459
1764313247490,1.7958,3.8201,9.2668,0.0667,-0.0791,-0.2799
1764313247500,1.6893,3.7932,9.6413,0.0667,-0.0791,-0.2799
1764313247510,1.6893,3.7932,9.6413,0.1399,-0.0788,-0.3141
1764313247520,1.4082,3.6245,9.4086,0.1399,-0.0788,-0.3141
1764313247530,1.4082,3.6245,9.4086,0.1839,-0.093,-0.2787
1764313247540,1.2126,3.5653,8.9839,0.1839,-0.093,-0.2787
1764313247550,1.2126,3.5653,8.9839,0.168,-0.0987,-0.2051
1764313247560,1.3657,3.6838,8.5549,0.168,-0.0987,-0.2051
1764313247570,1.3657,3.6838,8.5549,0.162,-0.2352,-0.1961
1764313247580,1.3657,3.6838,8.5549,0.162,-0.2352,-0.1961
1764313247590,1.5326,3.8393,8.4957,0.162,-0.2352,-0.1961
1764313247600,1.5326,3.8393,8.4957,0.1901,-0.3986,-0.2364
1764313247610,1.5314,3.9972,8.3426,0.1901,-0.3986,-0.2364
1764313247620,1.5314,3.9972,8.3426,0.1851,-0.5276,-0.2511
1764313247630,1.7575,3.9159,8.814,0.1851,-0.5276,-0.2511
1764313247640,1.7575,3.9159,8.814,0.1917,-0.4624,-0.2286
1764313247650,2.2893,3.9577,9.2542,0.1917,-0.4624,-0.2286
1764313247660,2.2893,3.9577,9.2542,0.2043,-0.2975,-0.2445
1764313247670,2.3079,4.2508,9.2303,0.2043,-0.2975,-0.2445
1764313247680,2.3079,4.2508,9.2303,0.2596,-0.3094,-0.3036
1764313247690,2.0339,4.2658,8.7613,0.2596,-0.3094,-0.3036
1764313247700,2.0339,4.2658,8.7613,0.3648,-0.6306,-0.3306
1764313247710,1.9813,4.468,8.4102,0.3648,-0.6306,-0.3306
1764313247720,1.9813,4.468,8.4102,0.3648,-0.6306,-0.3306
1764313247730,1.9813,4.468,8.4102,0.6571,-1.4171,-0.4426
1764313247740,0.7932,3.8094,9.3703,0.6571,-1.4171,-0.4426
1764313247750,0.7932,3.8094,9.3703,1.3286,-2.0258,-0.2841
1764313247760,1.4518,3.8112,9.1615,1.3286,-2.0258,-0.2841
1764313247770,1.4518,3.8112,9.1615,1.5902,-1.819,-0.0678
1764313247780,2.6638,4.462,8.9426,1.5902,-1.819,-0.0678
1764313247790,2.6638,4.462,8.9426,1.0415,-0.275,0.172
1764313247800,4.9424,5.5884,10.1683,1.0415,-0.275,0.172
1764313247810,4.9424,5.5884,10.1683,-0.7017,3.963,0.4307
1764313247820,7.9621,7.014,9.4343,-0.7017,3.963,0.4307
1764313247830,7.9621,7.014,9.4343,-0.7017,3.963,0.4307
1764313247840,8.9862,8.394,7.5404,-3.9544,10.3958,0.3341
1764313247850,8.9862,8.394,7.5404,-3.9544,10.3958,0.3341
1764313247860,10.1342,8.951,5.3665,-7.3044,16.9211,-0.0788
1764313247870,10.1342,8.951,5.3665,-7.3044,16.9211,-0.0788
1764313247880,10.1342,8.951,5.3665,-8.5203,20.2395,-1.3254
1764313247890,1.7151,3.9374,0.3338,-8.5203,20.2395,-1.3254
1764313247900,1.7151,3.9374,0.3338,-4.5302,13.5438,-2.0898
1764313247910,-11.875,0.8118,-8.1147,-4.5302,13.5438,-2.0898
1764313247920,-11.875,0.8118,-8.1147,1.4769,0.1749,-2.6996
1764313247930,-15.3894,-3.8536,-2.5017,1.4769,0.1749,-2.6996
1764313247940,-15.3894,-3.8536,-2.5017,2.7898,-5.1326,-1.5473
1764313247950,-9.0509,-4.1862,8.4933,2.7898,-5.1326,-1.5473
1764313247960,-9.0509,-4.1862,8.4933,0.3128,-0.85,-0.4255
1764313247970,-6.853,-0.6538,6.3236,0.3128,-0.85,-0.4255
1764313247980,-6.853,-0.6538,6.3236,0.3128,-0.85,-0.4255
1764313247990,-6.853,-0.6538,6.3236,-1.3066,1.4378,-0.5835
1764313248000,-9.8088,-0.9224,4.1312,-1.3066,1.4378,-0.5835
1764313248010,-9.8088,-0.9224,4.1312,-0.5712,-0.776,-0.7495
1764313248020,-10.9292,-1.7456,6.4732,-0.5712,-0.776,-0.7495
1764313248030,-10.9292,-1.7456,6.4732,0.821,-2.9848,-0.5464
1764313248040,-10.1055,-2.5077,7.1079,0.821,-2.9848,-0.5464
1764313248050,-10.1055,-2.5077,7.1079,1.6191,-4.2735,-0.0834
1764313248060,-7.1115,-1.1037,9.0401,1.6191,-4.2735,-0.0834
1764313248070,-7.1115,-1.1037,9.0401,2.1063,-4.4876,-0.0814
1764313248080,-5.8451,0.0766,9.1645,2.1063,-4.4876,-0.0814
1764313248090,-5.8451,0.0766,9.1645,2.0714,-4.2176,-0.3331
1764313248100,-6.2818,-0.0778,8.5603,2.0714,-4.2176,-0.3331
1764313248110,-6.2818,-0.0778,8.5603,1.7662,-4.1293,-0.2579
1764313248120,-6.2417,-0.3093,9.2806,1.7662,-4.1293,-0.2579
1764313248130,-6.2417,-0.3093,9.2806,1.7662,-4.1293,-0.2579
1764313248140,-6.2417,-0.3093,9.2806,1.7824,-4.24,0.0605
1764313248150,-4.6313,0.0778,10.5906,1.7824,-4.24,0.0605
1764313248160,-4.6313,0.0778,10.5906,2.1498,-4.2449,0.214
1764313248170,-2.6752,1.1306,11.2032,2.1498,-4.2449,0.214
1764313248180,-2.6752,1.1306,11.2032,2.5241,-3.8808,0.1378
1764313248190,-2.016,1.876,9.6586,2.5241,-3.8808,0.1378
1764313248200,-2.016,1.876,9.6586,2.303,-3.2907,0.038
1764313248210,-2.0351,2.0782,8.2134,2.303,-3.2907,0.038
1764313248220,-2.0351,2.0782,8.2134,1.9314,-3.1988,0.0681
1764313248230,-1.806,2.1422,8.5442,1.9314,-3.1988,0.0681
1764313248240,-1.806,2.1422,8.5442,2.1232,-3.6362,0.1631
1764313248250,-0.2788,2.8367,9.1549,2.1232,-3.6362,0.1631
1764313248260,-0.2788,2.8367,9.1549,2.1232,-3.6362,0.1631
1764313248270,0.8405,3.5402,9.0544,2.5247,-3.8474,0.1016
1764313248280,0.8405,3.5402,9.0544,2.5247,-3.8474,0.1016
1764313248290,0.8405,3.5402,9.0544,2.4013,-3.1058,0.0461
1764313248300,1.4423,3.9685,8.0225,2.4013,-3.1058,0.0461
1764313248310,1.4423,3.9685,8.0225,1.4163,-1.503,0.1448
1764313248320,1.5541,4.3466,6.6664,1.4163,-1.503,0.1448
1764313248330,1.5541,4.3466,6.6664,0.1295,-0.0974,0.3248
1764313248340,1.5793,4.6887,6.725,0.1295,-0.0974,0.3248
1764313248350,1.5793,4.6887,6.725,-0.5678,0.3679,0.3732
1764313248360,1.8389,4.6098,7.9107,-0.5678,0.3679,0.3732
1764313248370,1.8389,4.6098,7.9107,-0.4236,0.1023,0.2644
1764313248380,2.4562,4.8395,9.0802,-0.4236,0.1023,0.2644
1764313248390,2.4562,4.8395,9.0802,-0.4236,0.1023,0.2644
1764313248400,2.074,4.0977,9.0006,0.0301,-0.1086,0.0185
1764313248410,2.074,4.0977,9.0006,0.0301,-0.1086,0.0185
1764313248420,2.074,4.0977,9.0006,0.1399,-0.0205,-0.0157
1764313248430,1.9155,4.1348,8.5633,0.1399,-0.0205,-0.0157
1764313248440,1.9155,4.1348,8.5633,-0.1304,0.2804,0.0652
1764313248450,0.8566,3.6544,8.6686,-0.1304,0.2804,0.0652
1764313248460,0.8566,3.6544,8.6686,-0.2812,0.5079,0.2828
1764313248470,0.3888,3.9852,8.5519,-0.2812,0.5079,0.2828
1764313248480,0.3888,3.9852,8.5519,-0.3438,0.3044,0.6562
1764313248490,1.6636,4.258,9.1992,-0.3438,0.3044,0.6562
1764313248500,1.6636,4.258,9.1992,-0.1634,-0.1097,0.5988
1764313248510,2.6483,4.2796,10.0289,-0.1634,-0.1097,0.5988
1764313248520,2.6483,4.2796,10.0289,-0.1634,-0.1097,0.5988
1764313248530,2.6483,4.2796,10.0289,0.1741,-0.1477,0.3138
1764313248540,2.7517,4.4219,9.5043,0.1741,-0.1477,0.3138
1764313248550,2.7517,4.4219,9.5043,0.281,-0.1396,0.1031
1764313248560,2.2265,4.3962,9.3033,0.281,-0.1396,0.1031
1764313248570,2.2265,4.3962,9.3033,0.2456,0.0144,0.0608
1764313248580,1.9298,4.3167,8.7721,0.2456,0.0144,0.0608
1764313248590,1.9298,4.3167,8.7721,0.1576,0.1594,0.0701
1764313248600,1.6642,4.2419,8.2265,0.1576,0.1594,0.0701
1764313248610,1.6642,4.2419,8.2265,0.0751,0.1072,0.0852
1764313248620,1.5266,4.0642,8.0991,0.0751,0.1072,0.0852
1764313248630,1.5266,4.0642,8.0991,0.0915,-0.0938,0.1055
1764313248640,1.7623,3.993,8.4353,0.0915,-0.0938,0.1055
1764313248650,1.7623,3.993,8.4353,0.1885,-0.2547,0.0817
1764313248660,1.788,4.0516,8.3031,0.1885,-0.2547,0.0817
1764313248670,1.788,4.0516,8.3031,0.1885,-0.2547,0.0817
1764313248680,1.788,4.0516,8.3031,0.2431,-0.3235,0.0548
1764313248690,1.9412,4.2179,8.1996,0.2431,-0.3235,0.0548
1764313248700,1.9412,4.2179,8.1996,0.1436,-0.2665,0.0351
1764313248710,2.1805,4.3472,8.4706,0.1436,-0.2665,0.0351
1764313248720,2.1805,4.3472,8.4706,-0.0119,0.0376,0.0295
1764313248730,2.1314,4.3771,8.5555,-0.0119,0.0376,0.0295
1764313248740,2.1314,4.3771,8.5555,-0.183,0.2648,0.036
1764313248750,1.7641,4.3059,8.4885,-0.183,0.2648,0.036
1764313248760,1.7641,4.3059,8.4885,-0.1578,0.1878,0.0542
1764313248770,1.5326,4.1779,8.4497,-0.1578,0.1878,0.0542
1764313248780,1.5326,4.1779,8.4497,-0.0371,-0.1133,0.0764
1764313248790,2.0405,4.1886,8.7398,-0.0371,-0.1133,0.0764
1764313248800,2.0405,4.1886,8.7398,-0.0371,-0.1133,0.0764
1764313248810,2.6674,4.2843,8.7733,0.0846,-0.2941,0.0458
1764313248820,2.6674,4.2843,8.7733,0.0846,-0.2941,0.0458
1764313248830,2.6674,4.2843,8.7733,0.1403,-0.275,-0.0793
1764313248840,2.318,4.1934,8.6638,0.1403,-0.275,-0.0793
1764313248850,2.318,4.1934,8.6638,0.0785,-0.2115,-0.08
1764313248860,1.8568,4.0199,8.8935,0.0785,-0.2115,-0.08
1764313248870,1.8568,4.0199,8.8935,0.0015,-0.0942,0.053
1764313248880,1.9537,4.1934,8.7398,0.0015,-0.0942,0.053
1764313248890,1.9537,4.1934,8.7398,0.0104,-0.1506,0.0996
1764313248900,2.1888,4.2993,8.7613,0.0104,-0.1506,0.0996
1764313248910,2.1888,4.2993,8.7613,0.0513,-0.1536,0.0848
1764313248920,2.3151,4.3119,8.7129,0.0513,-0.1536,0.0848
1764313248930,2.3151,4.3119,8.7129,0.0513,-0.1536,0.0848
1764313248940,2.3151,4.3119,8.7129,0.0389,-0.0377,0.0658
1764313248950,2.1649,4.2909,8.3234,0.0389,-0.0377,0.0658
1764313248960,2.1649,4.2909,8.3234,-0.0625,0.1037,0.0744
1764313248970,1.8921,4.1874,8.0178,-0.0625,0.1037,0.0744
1764313248980,1.8921,4.1874,8.0178,-0.1947,0.1432,0.1378
1764313248990,2.2187,4.3322,8.2953,-0.1947,0.1432,0.1378
1764313249000,2.2187,4.3322,8.2953,-0.1996,0.1235,0.1133
1764313249010,2.324,4.4028,8.3952,-0.1996,0.1235,0.1133
1764313249020,2.324,4.4028,8.3952,-0.126,0.0463,0.0547
1764313249030,2.318,4.3884,8.4838,-0.126,0.0463,0.0547
1764313249040,2.318,4.3884,8.4838,-0.1067,0.014,0.0038
1764313249050,2.214,4.2197,8.5472,-0.1067,0.014,0.0038
1764313249060,2.214,4.2197,8.5472,-0.1155,-0.0108,-0.0182
1764313249070,1.9478,4.0714,8.8008,-0.1155,-0.0108,-0.0182
1764313249080,1.9478,4.0714,8.8008,-0.1155,-0.0108,-0.0182
1764313249090,1.9478,4.0714,8.8008,-0.0811,-0.0034,0.0202
1764313249100,1.9603,3.95,8.7996,-0.0811,-0.0034,0.0202
1764313249110,1.9603,3.95,8.7996,-0.084,0.0279,0.0698
1764313249120,1.9298,3.8728,8.8152,-0.084,0.0279,0.0698
1764313249130,1.9298,3.8728,8.8152,-0.095,0.0983,0.1342
1764313249140,1.8455,3.8937,8.8277,-0.095,0.0983,0.1342
1764313249150,1.8455,3.8937,8.8277,-0.104,0.2141,0.1996
1764313249160,2.3246,4.2389,8.9312,-0.104,0.2141,0.1996
1764313249170,2.3246,4.2389,8.9312,-0.0916,0.2416,0.1243
1764313249180,2.415,4.3771,8.8696,-0.0916,0.2416,0.1243
1764313249190,2.415,4.3771,8.8696,-0.0916,0.2416,0.1243
1764313249200,2.2588,4.1575,8.9569,0.0047,0.1494,-0.0154
1764313249210,2.2588,4.1575,8.9569,0.0047,0.1494,-0.0154
1764313249220,1.8078,3.9852,8.8409,0.0648,0.1155,-0.0765
1764313249230,1.8078,3.9852,8.8409,0.0648,0.1155,-0.0765
1764313249240,1.8078,3.9852,8.8409,0.069,0.1277,-0.0338
1764313249250,1.8359,4.1779,8.6369,0.069,0.1277,-0.0338
1764313249260,1.8359,4.1779,8.6369,0.0391,0.095,-0.0148
1764313249270,2.2839,4.3705,8.5807,0.0391,0.095,-0.0148
1764313249280,2.2839,4.3705,8.5807,-0.0498,0.1164,-0.0768
1764313249290,2.3773,4.3041,8.5854,-0.0498,0.1164,-0.0768
1764313249300,2.3773,4.3041,8.5854,-0.1381,0.1248,-0.164
1764313249310,2.1428,4.2879,8.8487,-0.1381,0.1248,-0.164
1764313249320,2.1428,4.2879,8.8487,-0.1507,0.1683,-0.2274
1764313249330,1.3196,3.682,9.3763,-0.1507,0.1683,-0.2274
1764313249340,1.3196,3.682,9.3763,-0.1507,0.1683,-0.2274
1764313249350,0.9727,3.7155,8.9192,0.056,0.1683,-0.1428
1764313249360,0.9727,3.7155,8.9192,0.056,0.1683,-0.1428
1764313249370,0.9727,3.7155,8.9192,0.2239,-0.1133,0.0328
1764313249380,1.6522,4.0122,8.5968,0.2239,-0.1133,0.0328
1764313249390,1.6522,4.0122,8.5968,0.2792,-0.4265,0.04
1764313249400,2.2337,4.4172,8.9031,0.2792,-0.4265,0.04
1764313249410,2.2337,4.4172,8.9031,0.4833,-0.8179,-0.0715
1764313249420,2.0052,4.3513,9.661,0.4833,-0.8179,-0.0715
1764313249430,2.0052,4.3513,9.661,0.7607,-0.8451,-0.0837
1764313249440,2.214,4.2784,10.1013,0.7607,-0.8451,-0.0837
1764313249450,2.214,4.2784,10.1013,0.664,0.026,0.0918
1764313249460,3.9069,4.7509,11.7793,0.664,0.026,0.0918
1764313249470,3.9069,4.7509,11.7793,0.664,0.026,0.0918
1764313249480,7.8102,6.3541,11.3216,-0.3129,3.5042,0.4236
1764313249490,7.8102,6.3541,11.3216,-0.3129,3.5042,0.4236
1764313249500,7.8102,6.3541,11.3216,-2.9054,9.966,0.4049
1764313249510,11.053,9.5462,7.6887,-2.9054,9.966,0.4049
1764313249520,11.053,9.5462,7.6887,-5.9229,16.5131,-0.2425
1764313249530,10.4836,8.7799,1.6307,-5.9229,16.5131,-0.2425
1764313249540,10.4836,8.7799,1.6307,-6.2803,16.8625,-1.3967
1764313249550,3.1478,6.5504,-5.0327,-6.2803,16.8625,-1.3967
1764313249560,3.1478,6.5504,-5.0327,-2.3659,8.8065,-3.0105
1764313249570,-7.7892,0.5695,-6.8961,-2.3659,8.8065,-3.0105
1764313249580,-7.7892,0.5695,-6.8961,0.5904,0.9308,-3.6818
1764313249590,-13.8622,-6.3888,-2.9444,0.5904,0.9308,-3.6818
1764313249600,-13.8622,-6.3888,-2.9444,0.5904,0.9308,-3.6818
1764313249610,-11.8397,-6.3918,5.8463,-0.4795,-0.836,-2.2964
1764313249620,-11.8397,-6.3918,5.8463,-0.4795,-0.836,-2.2964
1764313249630,-11.8397,-6.3918,5.8463,-1.8103,1.1762,-1.2934
1764313249640,-10.5811,-4.416,6.6867,-1.8103,1.1762,-1.2934
1764313249650,-10.5811,-4.416,6.6867,-1.3861,0.9178,-1.0681
1764313249660,-10.5254,-3.7262,6.0694,-1.3861,0.9178,-1.0681
1764313249670,-10.5254,-3.7262,6.0694,-0.4195,-0.6955,-1.002
1764313249680,-10.0576,-3.7101,7.1019,-0.4195,-0.6955,-1.002
1764313249690,-10.0576,-3.7101,7.1019,-0.1429,-1.0602,-0.825
1764313249700,-9.6491,-3.8142,8.3862,-0.1429,-1.0602,-0.825
1764313249710,-9.6491,-3.8142,8.3862,-0.306,-0.3383,-0.6086
1764313249720,-10.1683,-3.4762,7.6917,-0.306,-0.3383,-0.6086
1764313249730,-10.1683,-3.4762,7.6917,-0.1703,-0.3606,-0.3896
1764313249740,-10.1683,-3.4762,7.6917,-0.1703,-0.3606,-0.3896
1764313249750,-10.7498,-3.1071,6.5216,-0.1703,-0.3606,-0.3896
1764313249760,-10.7498,-3.1071,6.5216,0.3525,-1.5,-0.1376
1764313249770,-10.6995,-2.4646,5.4616,0.3525,-1.5,-0.1376
1764313249780,-10.6995,-2.4646,5.4616,0.9672,-3.2868,0.1179
1764313249790,-9.3643,-2.272,4.4955,0.9672,-3.2868,0.1179
1764313249800,-9.3643,-2.272,4.4955,1.6582,-5.871,0.2865
1764313249810,-5.3037,-1.5374,6.5916,1.6582,-5.871,0.2865
1764313249820,-5.3037,-1.5374,6.5916,2.8792,-8.7364,-0.1232
1764313249830,-2.0022,-0.7292,12.5593,2.8792,-8.7364,-0.1232
1764313249840,-2.0022,-0.7292,12.5593,4.5717,-9.913,-0.7549
1764313249850,-1.7964,-0.7561,13.6852,4.5717,-9.913,-0.7549
1764313249860,-1.7964,-0.7561,13.6852,5.4165,-9.3661,-0.8172
1764313249870,-1.4118,0.0257,11.0949,5.4165,-9.3661,-0.8172
1764313249880,-1.4118,0.0257,11.0949,5.4165,-9.3661,-0.8172
1764313249890,-1.4118,0.0257,11.0949,4.8836,-7.7894,-0.4662
1764313249900,-0.3147,1.4584,9.4959,4.8836,-7.7894,-0.4662
1764313249910,-0.3147,1.4584,9.4959,3.3002,-4.934,0.0421
1764313249920,1.8855,2.4873,8.7117,3.3002,-4.934,0.0421
1764313249930,1.8855,2.4873,8.7117,1.2033,-1.5055,0.4155
1764313249940,3.6359,3.9212,9.5175,1.2033,-1.5055,0.4155
1764313249950,3.6359,3.9212,9.5175,-0.3384,1.4169,0.3317
1764313249960,2.9803,3.8925,8.1344,-0.3384,1.4169,0.3317
1764313249970,2.9803,3.8925,8.1344,-0.7068,1.7181,0.0231
1764313249980,1.7498,3.3912,7.8532,-0.7068,1.7181,0.0231
1764313249990,1.7498,3.3912,7.8532,-0.0176,0.2169,-0.2592
1764313250000,1.1312,2.948,9.0335,-0.0176,0.2169,-0.2592
1764313250010,1.1312,2.948,9.0335,-0.0176,0.2169,-0.2592
1764313250020,0.8614,2.144,10.1264,0.6747,-0.8525,-0.3764
1764313250030,0.8614,2.144,10.1264,0.6747,-0.8525,-0.3764
1764313250040,0.8614,2.144,10.1264,0.7055,-0.4497,-0.1428
1764313250050,1.075,2.3001,9.5934,0.7055,-0.4497,-0.1428
1764313250060,1.075,2.3001,9.5934,0.2185,0.5434,0.1361
1764313250070,0.1328,1.9747,8.7559,0.2185,0.5434,0.1361
1764313250080,0.1328,1.9747,8.7559,0.0049,0.8428,0.4505
1764313250090,-0.3242,2.6752,7.3591,0.0049,0.8428,0.4505
1764313250100,-0.3242,2.6752,7.3591,-0.0185,0.0113,0.8001
1764313250110,1.6158,3.1107,8.3569,-0.0185,0.0113,0.8001
1764313250120,1.6158,3.1107,8.3569,0.0822,-0.4786,0.6822
1764313250130,3.1549,3.4678,9.8106,0.0822,-0.4786,0.6822
1764313250140,3.1549,3.4678,9.8106,0.0822,-0.4786,0.6822
1764313250150,2.8762,3.4122,10.3143,0.2231,-0.3583,0.2941
1764313250160,2.8762,3.4122,10.3143,0.2231,-0.3583,0.2941
1764313250170,2.8762,3.4122,10.3143,0.3441,-0.0502,0.0515
1764313250180,2.1165,3.262,9.3069,0.3441,-0.0502,0.0515
1764313250190,2.1165,3.262,9.3069,0.2877,0.0686,-0.0006
1764313250200,1.5087,3.396,8.5549,0.2877,0.0686,-0.0006
1764313250210,1.5087,3.396,8.5549,0.1352,0.0418,0.0217
1764313250220,1.209,3.2752,8.8134,0.1352,0.0418,0.0217
1764313250230,1.209,3.2752,8.8134,0.066,-0.0308,0.1329
1764313250240,1.3149,3.1759,9.417,0.066,-0.0308,0.1329
1764313250250,1.3149,3.1759,9.417,0.1465,-0.0125,0.2118
1764313250260,1.5446,3.1346,9.7837,0.1465,-0.0125,0.2118
1764313250270,1.5446,3.1346,9.7837,0.3054,0.0593,0.2347
1764313250280,1.3926,3.2417,8.9079,0.3054,0.0593,0.2347
1764313250290,1.3926,3.2417,8.9079,0.3054,0.0593,0.2347
1764313250300,1.3926,3.2417,8.9079,0.3526,0.0345,0.264
1764313250310,1.3304,3.3835,8.193,0.3526,0.0345,0.264
1764313250320,1.3304,3.3835,8.193,0.182,0.0027,0.2682
1764313250330,1.3226,3.4253,8.3737,0.182,0.0027,0.2682
1764313250340,1.3226,3.4253,8.3737,0.0153,0.0661,0.2943
1764313250350,1.2778,3.417,8.4168,0.0153,0.0661,0.2943
1764313250360,1.2778,3.417,8.4168,-0.1023,0.115,0.2992
1764313250370,1.1258,3.195,8.5316,-0.1023,0.115,0.2992
1764313250380,1.1258,3.195,8.5316,-0.1272,0.0451,0.3181
1764313250390,1.4387,3.1633,9.3428,-0.1272,0.0451,0.3181
1764313250400,1.4387,3.1633,9.3428,-0.1272,0.0451,0.3181
1764313250410,2.0495,2.7835,10.5464,-0.0599,0.0182,0.3132
1764313250420,2.0495,2.7835,10.5464,-0.0599,0.0182,0.3132
1764313250430,2.324,3.1573,10.7498,0.0267,0.2856,0.3549
1764313250440,2.324,3.1573,10.7498,0.0267,0.2856,0.3549
1764313250450,2.324,3.1573,10.7498,0.2092,0.5101,0.2645
1764313250460,1.4261,3.2411,9.6921,0.2092,0.5101,0.2645
1764313250470,1.4261,3.2411,9.6921,0.3827,0.2709,0.2909
1764313250480,0.8501,3.189,9.0993,0.3827,0.2709,0.2909
1764313250490,0.8501,3.189,9.0993,0.4942,-0.0675,0.405
1764313250500,0.7669,3.3117,9.0209,0.4942,-0.0675,0.405
1764313250510,0.7669,3.3117,9.0209,0.533,-0.265,0.5406
1764313250520,1.3388,3.3661,9.4026,0.533,-0.265,0.5406
1764313250530,1.3388,3.3661,9.4026,0.5345,-0.1646,0.637
1764313250540,1.7121,3.3033,9.6431,0.5345,-0.1646,0.637
1764313250550,1.7121,3.3033,9.6431,0.5345,-0.1646,0.637
1764313250560,2.144,3.4875,9.3099,0.5357,0.0553,0.6652
1764313250570,2.144,3.4875,9.3099,0.5357,0.0553,0.6652
1764313250580,2.144,3.4875,9.3099,0.575,0.0585,0.5968
1764313250590,2.3641,3.9212,8.8008,0.575,0.0585,0.5968
1764313250600,2.3641,3.9212,8.8008,0.5541,-0.0072,0.4847
1764313250610,1.9765,3.8016,8.7165,0.5541,-0.0072,0.4847
1764313250620,1.9765,3.8016,8.7165,0.5266,-0.0079,0.4598
1764313250630,1.6834,3.5779,8.7117,0.5266,-0.0079,0.4598
1764313250640,1.6834,3.5779,8.7117,0.5541,-0.0531,0.5299
1764313250650,2.0243,3.8082,8.6124,0.5541,-0.0531,0.5299
1764313250660,2.0243,3.8082,8.6124,0.5541,-0.0531,0.5299
1764313250670,2.4694,3.9176,8.6441,0.5684,-0.069,0.5356
1764313250680,2.4694,3.9176,8.6441,0.5684,-0.069,0.5356
1764313250690,2.4694,3.9176,8.6441,0.5791,-0.0206,0.4656
1764313250700,2.7153,3.9655,8.5615,0.5791,-0.0206,0.4656
1764313250710,2.7153,3.9655,8.5615,0.5577,0.0699,0.3684
1764313250720,2.5155,4.0026,8.3474,0.5577,0.0699,0.3684
1764313250730,2.5155,4.0026,8.3474,0.4246,0.3479,0.3451
1764313250740,2.6046,4.1839,8.4419,0.4246,0.3479,0.3451
1764313250750,2.6046,4.1839,8.4419,0.2101,0.7798,0.3389
1764313250760,2.318,4.0917,8.2235,0.2101,0.7798,0.3389
1764313250770,2.318,4.0917,8.2235,0.0553,1.0027,0.3606
1764313250780,1.809,4.1474,7.6792,0.0553,1.0027,0.3606
1764313250790,1.809,4.1474,7.6792,-0.0483,0.7975,0.4502
1764313250800,1.7402,4.1844,7.8323,-0.0483,0.7975,0.4502
1764313250810,1.7402,4.1844,7.8323,-0.0632,0.4294,0.5056
1764313250820,2.0895,4.063,8.9001,-0.0632,0.4294,0.5056
1764313250830,2.0895,4.063,8.9001,-0.0632,0.4294,0.5056
1764313250840,2.0895,4.063,8.9001,0.0597,0.254,0.4791
1764313250850,2.2905,3.9541,9.5797,0.0597,0.254,0.4791
1764313250860,2.2905,3.9541,9.5797,0.168,0.4319,0.4673
1764313250870,2.1553,3.9338,9.0514,0.168,0.4319,0.4673
1764313250880,2.1553,3.9338,9.0514,0.0964,0.6069,0.5008
1764313250890,2.1918,4.2939,8.7541,0.0964,0.6069,0.5008
1764313250900,2.1918,4.2939,8.7541,0.079,0.4609,0.4827
1764313250910,2.2588,4.3561,8.8086,0.079,0.4609,0.4827
1764313250920,2.2588,4.3561,8.8086,0.2979,0.0023,0.3884
1764313250930,2.1087,4.1504,8.9222,0.2979,0.0023,0.3884
1764313250940,2.1087,4.1504,8.9222,0.2979,0.0023,0.3884
1764313250950,1.9992,4.127,8.5681,0.6104,-0.5098,0.3303
1764313250960,1.9992,4.127,8.5681,0.6104,-0.5098,0.3303
1764313250970,1.6618,3.9446,7.9059,0.8978,-1.0815,0.2714
1764313250980,1.6618,3.9446,7.9059,0.8978,-1.0815,0.2714
1764313250990,1.6618,3.9446,7.9059,1.3173,-1.9456,0.2359
1764313251000,1.6128,3.5043,8.3079,1.3173,-1.9456,0.2359
1764313251010,1.6128,3.5043,8.3079,1.8236,-2.0461,0.4045
1764313251020,4.1713,4.4853,10.8144,1.8236,-2.0461,0.4045
1764313251030,4.1713,4.4853,10.8144,0.6388,2.8391,0.6946
1764313251040,9.3206,7.9603,6.3302,0.6388,2.8391,0.6946
1764313251050,9.3206,7.9603,6.3302,-4.3002,11.4343,0.4465
1764313251060,14.4832,11.9133,0.664,-4.3002,11.4343,0.4465
1764313251070,14.4832,11.9133,0.664,-9.0657,17.9405,-1.117
1764313251080,10.1599,8.8642,0.1472,-9.0657,17.9405,-1.117
1764313251090,10.1599,8.8642,0.1472,-9.0657,17.9405,-1.117
1764313251100,10.1599,8.8642,0.1472,-8.9754,18.6433,-2.5699
1764313251110,-1.2574,2.8122,-4.6259,-8.9754,18.6433,-2.5699
1764313251120,-1.2574,2.8122,-4.6259,-4.6988,10.5896,-3.1954
1764313251130,-13.669,-3.6401,-4.6211,-4.6988,10.5896,-3.1954
1764313251140,-13.669,-3.6401,-4.6211,-0.233,0.6576,-2.9483
1764313251150,-17.6291,-9.6323,2.6501,-0.233,0.6576,-2.9483
1764313251160,-17.6291,-9.6323,2.6501,0.9145,-3.0058,-1.3222
1764313251170,-13.4255,-8.3713,9.6443,0.9145,-3.0058,-1.3222
1764313251180,-13.4255,-8.3713,9.6443,-0.2204,-0.8404,-0.239
1764313251190,-12.1382,-5.5705,8.3384,-0.2204,-0.8404,-0.239
1764313251200,-12.1382,-5.5705,8.3384,-0.2204,-0.8404,-0.239
1764313251210,-11.4299,-3.3482,8.053,-0.8393,-0.0312,0.2208
1764313251220,-11.4299,-3.3482,8.053,0.0932,-1.5055,0.3816
1764313251230,-9.9194,-1.7833,8.5107,0.0932,-1.5055,0.3816
1764313251240,-9.9194,-1.7833,8.5107,0.0932,-1.5055,0.3816
1764313251250,-9.9194,-1.7833,8.5107,1.1299,-2.7058,0.4354
1764313251260,-8.2487,-0.8788,6.8836,1.1299,-2.7058,0.4354
1764313251270,-8.2487,-0.8788,6.8836,1.3613,-3.443,0.4485
1764313251280,-6.2136,-0.0897,7.5673,1.3613,-3.443,0.4485
1764313251290,-6.2136,-0.0897,7.5673,1.4708,-3.7994,0.2587
1764313251300,-5.3665,-0.0897,7.986,1.4708,-3.7994,0.2587
1764313251310,-5.3665,-0.0897,7.986,1.6634,-4.2527,0.1443
1764313251320,-4.3388,-0.3338,8.0955,1.6634,-4.2527,0.1443
1764313251330,-4.3388,-0.3338,8.0955,1.9722,-4.9694,0.0958
1764313251340,-2.8062,0.2794,9.2477,1.9722,-4.9694,0.0958
1764313251350,-2.8062,0.2794,9.2477,1.9722,-4.9694,0.0958
1764313251360,-1.7545,0.5157,9.2411,2.2532,-5.2101,-0.0096
1764313251370,-1.7545,0.5157,9.2411,2.2532,-5.2101,-0.0096
1764313251380,-0.2357,1.2173,10.7516,2.3531,-5.3022,-0.0956
1764313251390,-0.2357,1.2173,10.7516,2.3531,-5.3022,-0.0956
1764313251400,-0.2357,1.2173,10.7516,2.4801,-4.6673,-0.2136
1764313251410,0.198,1.8245,10.3849,2.4801,-4.6673,-0.2136
1764313251420,0.198,1.8245,10.3849,1.9236,-3.0875,-0.2152
1764313251430,-0.0969,1.6786,9.0754,1.9236,-3.0875,-0.2152
1764313251440,-0.0969,1.6786,9.0754,0.9679,-1.6272,-0.0174
1764313251450,-0.1017,1.9095,8.5549,0.9679,-1.6272,-0.0174
1764313251460,-0.1017,1.9095,8.5549,0.5276,-1.2104,0.0962
1764313251470,0.7992,2.4867,9.137,0.5276,-1.2104,0.0962
1764313251480,0.7992,2.4867,9.137,0.6266,-1.3335,-0.0377
1764313251490,1.2616,2.7182,9.1041,0.6266,-1.3335,-0.0377
1764313251500,1.2616,2.7182,9.1041,0.6266,-1.3335,-0.0377
1764313251510,1.1982,2.683,9.1119,0.7025,-1.4659,-0.2254
1764313251520,1.1982,2.683,9.1119,0.7025,-1.4659,-0.2254
1764313251530,1.1982,2.683,9.1119,0.675,-1.439,-0.2695
1764313251540,1.0684,2.5968,9.3924,0.675,-1.439,-0.2695
1764313251550,1.0684,2.5968,9.3924,0.5339,-1.029,-0.1704
1764313251560,1.1216,2.6321,9.0754,0.5339,-1.029,-0.1704
1764313251570,1.1216,2.6321,9.0754,0.2476,-0.5472,-0.0206
1764313251580,1.5362,2.9701,8.924,0.2476,-0.5472,-0.0206
1764313251590,1.5362,2.9701,8.924,0.0165,-0.2227,0.02
1764313251600,1.9448,3.0855,8.7787,0.0165,-0.2227,0.02
1764313251610,1.9448,3.0855,8.7787,-0.0307,-0.2604,-0.0576
1764313251620,2.1284,3.0646,9.0814,-0.0307,-0.2604,-0.0576
1764313251630,2.1284,3.0646,9.0814,-0.0307,-0.2604,-0.0576
1764313251640,1.8006,2.9067,9.5743,0.0035,-0.2567,-0.179
1764313251650,1.8006,2.9067,9.5743,0.0035,-0.2567,-0.179
1764313251660,1.8006,2.9067,9.5743,-0.0786,0.1904,-0.1579
1764313251670,-0.0832,1.5015,9.3452,-0.0786,0.1904,-0.1579
1764313251680,-0.0832,1.5015,9.3452,-0.2094,0.6237,0.3425
1764313251690,0.0491,2.1715,7.3621,-0.2094,0.6237,0.3425
1764313251700,0.0491,2.1715,7.3621,-0.5931,-0.0791,0.7512
1764313251710,2.2552,2.9803,8.9061,-0.5931,-0.0791,0.7512
1764313251720,2.2552,2.9803,8.9061,-0.4647,-0.6486,0.4982
1764313251730,3.4839,3.2746,10.9813,-0.4647,-0.6486,0.4982
1764313251740,3.4839,3.2746,10.9813,0.002,-0.704,0.0261
1764313251750,3.1813,2.9785,11.1153,0.002,-0.704,0.0261
1764313251760,3.1813,2.9785,11.1153,0.002,-0.704,0.0261
1764313251770,2.6261,2.8869,10.2042,0.2549,-0.48,-0.2323
1764313251780,2.6261,2.8869,10.2042,0.2549,-0.48,-0.2323
1764313251790,2.6261,2.8869,10.2042,0.2199,-0.2237,-0.308
1764313251800,2.3192,2.9527,9.9033,0.2199,-0.2237,-0.308
1764313251810,2.3192,2.9527,9.9033,0.1225,0.048,-0.2996
1764313251820,2.1476,2.9157,9.5013,0.1225,0.048,-0.2996
1764313251830,2.1476,2.9157,9.5013,0.0825,0.0858,-0.2889
1764313251840,2.2193,3.0694,9.1328,0.0825,0.0858,-0.2889
1764313251850,2.2193,3.0694,9.1328,0.0863,-0.0641,-0.3464
1764313251860,2.1954,2.9085,8.8427,0.0863,-0.0641,-0.3464
1764313251870,2.1954,2.9085,8.8427,0.0855,-0.1961,-0.4143
1764313251880,2.0118,2.6991,9.1723,0.0855,-0.1961,-0.4143
1764313251890,2.0118,2.6991,9.1723,0.0912,-0.2083,-0.4294
1764313251900,2.0118,2.6991,9.1723,0.0912,-0.2083,-0.4294
1764313251910,1.879,2.4437,9.3236,0.0912,-0.2083,-0.4294
1764313251920,1.879,2.4437,9.3236,0.1472,-0.1045,-0.3803
1764313251930,1.8078,2.6495,8.4162,0.1472,-0.1045,-0.3803
1764313251940,1.8078,2.6495,8.4162,0.0426,-0.124,-0.3615
1764313251950,1.7934,2.9432,8.0237,0.0426,-0.124,-0.3615
1764313251960,1.7934,2.9432,8.0237,-0.168,-0.1949,-0.401
1764313251970,1.8269,2.9539,9.0718,-0.168,-0.1949,-0.401
1764313251980,1.8269,2.9539,9.0718,-0.2184,-0.1355,-0.4401
1764313251990,1.8933,2.5777,9.7005,-0.2184,-0.1355,-0.4401
1764313252000,1.8933,2.5777,9.7005,-0.1162,0.0009,-0.4148
1764313252010,2.1153,2.8463,9.5982,-0.1162,0.0009,-0.4148
1764313252020,2.1153,2.8463,9.5982,-0.0608,0.0394,-0.458
1764313252030,2.2217,2.9701,9.4487,-0.0608,0.0394,-0.458
1764313252040,2.2217,2.9701,9.4487,-0.0608,0.0394,-0.458
1764313252050,2.2217,2.9701,9.4487,-0.0086,0.0003,-0.5541
1764313252060,1.8933,2.9462,9.1179,-0.0086,0.0003,-0.5541
1764313252070,1.8933,2.9462,9.1179,-0.0063,-0.1513,-0.587
1764313252080,1.6857,2.945,9.1801,-0.0063,-0.1513,-0.587
1764313252090,1.6857,2.945,9.1801,-0.0623,-0.1848,-0.5423
1764313252100,1.6881,2.7135,9.6162,-0.0623,-0.1848,-0.5423
1764313252110,1.6881,2.7135,9.6162,-0.11,-0.0565,-0.4759
1764313252120,1.7659,2.6213,9.7262,-0.11,-0.0565,-0.4759
1764313252130,1.7659,2.6213,9.7262,-0.0623,-0.0107,-0.4531
1764313252140,2.1882,3.0706,9.3781,-0.0623,-0.0107,-0.4531
1764313252150,2.1882,3.0706,9.3781,0.0084,-0.1494,-0.5756
1764313252160,2.2313,3.1184,9.2919,0.0084,-0.1494,-0.5756
1764313252170,2.2313,3.1184,9.2919,0.0084,-0.1494,-0.5756
1764313252180,1.718,2.7673,9.53,0.0597,-0.3265,-0.708
1764313252190,1.718,2.7673,9.53,0.0597,-0.3265,-0.708
1764313252200,1.718,2.7673,9.53,0.1506,-0.4468,-0.6962
1764313252210,1.267,2.5172,9.7167,0.1506,-0.4468,-0.6962
1764313252220,1.267,2.5172,9.7167,0.2332,-0.4401,-0.5431
1764313252230,1.7438,2.9444,9.7137,0.2332,-0.4401,-0.5431
1764313252240,1.7438,2.9444,9.7137,0.2227,-0.3073,-0.5037
1764313252250,2.278,3.2411,9.2285,0.2227,-0.3073,-0.5037
1764313252260,2.278,3.2411,9.2285,0.2227,-0.3073,-0.5037
