Timestamp,ax,ay,az,gx,gy,gz
1764312943020,1.6911,6.4798,6.7609,0.3734,-0.3309,-0.1973
1764312943030,1.6911,6.4798,6.7609,0.3734,-0.3309,-0.1973
1764312943040,1.6911,6.4798,6.7609,0.5889,-0.7886,-0.2512
1764312943050,0.4899,6.2225,7.1833,0.5889,-0.7886,-0.2512
1764312943060,0.4899,6.2225,7.1833,0.5889,-0.7886,-0.2512
1764312943070,0.6347,6.1771,7.3113,0.7158,-0.9487,0.016
1764312943080,0.6347,6.1771,7.3113,0.6942,-0.5409,0.3309
1764312943090,0.6927,5.9408,6.9308,0.6942,-0.5409,0.3309
1764312943100,0.6927,5.9408,6.9308,0.3778,0.4438,0.6665
1764312943110,2.0931,6.4618,6.8399,0.3778,0.4438,0.6665
1764312943120,2.0931,6.4618,6.8399,-0.7278,2.8439,0.9326
1764312943130,5.3264,8.4287,6.0479,-0.7278,2.8439,0.9326
1764312943140,5.3264,8.4287,6.0479,-0.7278,2.8439,0.9326
1764312943150,5.3264,8.4287,6.0479,-3.2767,7.5834,0.6636
1764312943160,8.5825,10.4172,4.6774,-3.2767,7.5834,0.6636
1764312943170,8.5825,10.4172,4.6774,-7.0628,14.286,-0.3403
1764312943180,9.4959,10.0098,0.6305,-7.0628,14.286,-0.3403
1764312943190,9.4959,10.0098,0.6305,-9.5887,18.3905,-2.2214
1764312943200,3.6066,6.7956,-2.8187,-9.5887,18.3905,-2.2214
1764312943210,3.6066,6.7956,-2.8187,-8.2752,16.0062,-4.0198
1764312943220,-10.0439,-1.3352,-6.1771,-8.2752,16.0062,-4.0198
1764312943230,-10.0439,-1.3352,-6.1771,-3.3546,5.5758,-3.7591
1764312943240,-18.533,-6.0861,-0.2279,-3.3546,5.5758,-3.7591
1764312943250,-18.533,-6.0861,-0.2279,-3.3546,5.5758,-3.7591
1764312943260,-18.533,-6.0861,-0.2279,0.8636,-3.3778,-2.013
1764312943270,-15.478,-7.1976,10.3627,0.8636,-3.3778,-2.013
1764312943280,-8.5214,-1.5906,7.0887,1.2938,-2.5837,-0.0307
1764312943290,-8.5214,-1.5906,7.0887,1.2938,-2.5837,-0.0307
1764312943300,-8.5214,-1.5906,7.0887,-0.0831,-0.4018,0.1691
1764312943310,-7.474,1.1091,4.8395,-0.0831,-0.4018,0.1691
1764312943320,-7.474,1.1091,4.8395,-0.6138,-1.018,-0.3636
1764312943330,-9.2524,0.1178,8.2229,-0.6138,-1.018,-0.3636
1764312943340,-9.2524,0.1178,8.2229,0.292,-2.7671,-0.4235
1764312943350,-9.6844,-0.4463,9.9697,0.292,-2.7671,-0.4235
1764312943360,-9.6844,-0.4463,9.9697,0.292,-2.7671,-0.4235
1764312943370,-8.9234,-0.4977,8.9282,1.8402,-4.9222,-0.1875
1764312943380,-8.9234,-0.4977,8.9282,3.2095,-7.3073,0.1064
1764312943390,-8.9234,-0.4977,8.9282,3.2095,-7.3073,0.1064
1764312943400,-7.2676,-0.7358,8.8522,3.2095,-7.3073,0.1064
1764312943410,-3.3212,0.8106,9.5683,4.3636,-9.2372,0.4114
1764312943420,-3.3212,0.8106,9.5683,4.3636,-9.2372,0.4114
1764312943430,-3.3212,0.8106,9.5683,5.4452,-10.4601,0.4123
1764312943440,0.6652,2.9061,9.8189,5.4452,-10.4601,0.4123
1764312943450,0.6652,2.9061,9.8189,5.5925,-9.7346,0.1275
1764312943460,2.3641,4.3454,8.7159,5.5925,-9.7346,0.1275
1764312943470,2.3641,4.3454,8.7159,4.6804,-7.718,-0.0356
1764312943480,3.5671,5.132,8.7302,4.6804,-7.718,-0.0356
1764312943490,3.5671,5.132,8.7302,2.9532,-4.1281,-0.0104
1764312943500,4.1635,5.7631,7.1677,2.9532,-4.1281,-0.0104
1764312943510,4.1635,5.7631,7.1677,1.049,-0.7488,-0.0504
1764312943520,3.6168,6.3254,5.0076,1.049,-0.7488,-0.0504
1764312943530,3.6168,6.3254,5.0076,-0.2673,0.7112,-0.1591
1764312943540,2.6674,6.0215,5.1027,-0.2673,0.7112,-0.1591
1764312943550,2.6674,6.0215,5.1027,-0.2673,0.7112,-0.1591
1764312943560,1.8197,5.3372,6.7268,-0.6562,0.6449,-0.2642
1764312943570,1.8197,5.3372,6.7268,-0.6562,0.6449,-0.2642
1764312943580,1.8197,5.3372,6.7268,-0.3039,-0.1,-0.2161
1764312943590,1.8778,4.8526,8.8313,-0.3039,-0.1,-0.2161
1764312943600,1.8778,4.8526,8.8313,0.3189,-0.4253,-0.0753
1764312943610,2.6052,4.9543,8.8899,0.3189,-0.4253,-0.0753
1764312943620,2.6052,4.9543,8.8899,0.4673,-0.1232,0.0365
1764312943630,3.0138,5.3504,8.0285,0.4673,-0.1232,0.0365
1764312943640,3.0138,5.3504,8.0285,0.2434,0.3143,0.0886
1764312943650,3.0329,5.8451,7.0062,0.2434,0.3143,0.0886
1764312943660,3.0329,5.8451,7.0062,0.0667,0.2071,0.0273
1764312943670,2.9061,6.0682,7.0935,0.0667,0.2071,0.0273
1764312943680,2.9061,6.0682,7.0935,0.0667,0.2071,0.0273
1764312943690,3.5653,5.9342,8.0178,0.1613,-0.2201,-0.0899
1764312943700,3.5653,5.9342,8.0178,0.1613,-0.2201,-0.0899
1764312943710,3.5653,5.9342,8.0178,0.3456,-0.3749,-0.2818
1764312943720,5.6578,6.4415,9.9811,0.3456,-0.3749,-0.2818
1764312943730,5.6578,6.4415,9.9811,0.4528,0.5043,-0.7097
1764312943740,3.6957,5.2367,10.8413,0.4528,0.5043,-0.7097
1764312943750,3.6957,5.2367,10.8413,0.6115,1.6527,-0.5565
1764312943760,0.2106,4.6277,6.923,0.6115,1.6527,-0.5565
1764312943770,0.2106,4.6277,6.923,0.2914,1.8442,0.1324
1764312943780,-0.6239,5.7523,4.0421,0.2914,1.8442,0.1324
1764312943790,-0.6239,5.7523,4.0421,-0.4733,1.2956,0.7837
1764312943800,1.7545,6.3876,5.7984,-0.4733,1.2956,0.7837
1764312943810,1.7545,6.3876,5.7984,-0.6008,1.0322,0.6472
1764312943820,2.9797,5.9928,7.0301,-0.6008,1.0322,0.6472
1764312943830,2.9797,5.9928,7.0301,-0.6008,1.0322,0.6472
1764312943840,2.9797,5.9928,7.0301,-0.3288,0.4649,0.1507
1764312943850,1.8233,5.6052,7.614,-0.3288,0.4649,0.1507
1764312943860,1.8233,5.6052,7.614,0.0455,0.0137,-0.035
1764312943870,1.0881,5.1506,7.3208,0.0455,0.0137,-0.035
1764312943880,1.0881,5.1506,7.3208,0.1684,-0.2031,0.0304
1764312943890,1.7336,5.4957,7.2443,0.1684,-0.2031,0.0304
1764312943900,1.7336,5.4957,7.2443,0.0883,-0.1744,0.0116
1764312943910,2.141,5.6967,7.3508,0.0883,-0.1744,0.0116
1764312943920,2.141,5.6967,7.3508,-0.0788,-0.0205,-0.0499
1764312943930,1.9442,5.8164,7.4447,-0.0788,-0.0205,-0.0499
1764312943940,1.9442,5.8164,7.4447,-0.2025,0.0499,-0.0612
1764312943950,1.9448,5.8068,7.8401,-0.2025,0.0499,-0.0612
1764312943960,1.9448,5.8068,7.8401,-0.2025,0.0499,-0.0612
1764312943970,2.1553,5.8337,8.2295,-0.2028,0.0617,-0.0533
1764312943980,2.1553,5.8337,8.2295,-0.2028,0.0617,-0.0533
1764312943990,2.1553,5.8337,8.2295,-0.1167,0.0707,-0.0687
1764312944000,2.0447,5.8702,7.946,-0.1167,0.0707,-0.0687
1764312944010,2.0447,5.8702,7.946,-0.0635,-0.0217,-0.1083
1764312944020,1.7163,5.6548,7.8018,-0.0635,-0.0217,-0.1083
1764312944030,1.7163,5.6548,7.8018,-0.016,-0.1504,-0.0788
1764312944040,1.145,5.4233,7.6301,-0.016,-0.1504,-0.0788
1764312944050,1.145,5.4233,7.6301,-0.0593,-0.2666,0.0307
1764312944060,1.8443,5.4604,9.1023,-0.0593,-0.2666,0.0307
1764312944070,1.8443,5.4604,9.1023,0.0194,0.0651,0.0987
1764312944080,1.9238,5.2193,8.2247,0.0194,0.0651,0.0987
1764312944090,1.9238,5.2193,8.2247,0.0194,0.0651,0.0987
1764312944100,1.9238,5.2193,8.2247,0.0634,0.1846,0.0454
1764312944110,1.5505,5.6106,7.7731,0.0634,0.1846,0.0454
1764312944120,1.5505,5.6106,7.7731,0.0699,-0.0165,0.0243
1764312944130,1.8245,5.5789,8.2086,0.0699,-0.0165,0.0243
1764312944140,1.8245,5.5789,8.2086,0.1587,0.017,0.0034
1764312944150,1.5488,5.6375,7.4387,0.1587,0.017,0.0034
1764312944160,1.5488,5.6375,7.4387,0.1026,0.0034,0.0249
1764312944170,1.724,6.0168,7.1689,0.1026,0.0034,0.0249
1764312944180,1.724,6.0168,7.1689,-0.0945,-0.0539,-0.0148
1764312944190,2.3605,6.0843,8.1799,-0.0945,-0.0539,-0.0148
1764312944200,2.3605,6.0843,8.1799,-0.0945,-0.0539,-0.0148
1764312944210,2.7422,5.6154,9.1196,-0.1434,0.0376,-0.1933
1764312944220,2.7422,5.6154,9.1196,0.0228,0.2372,-0.2874
1764312944230,2.0782,5.6548,8.7757,0.0228,0.2372,-0.2874
1764312944240,2.0782,5.6548,8.7757,0.0228,0.2372,-0.2874
1764312944250,2.0782,5.6548,8.7757,0.2552,0.1232,-0.2732
1764312944260,1.4824,5.6644,8.455,0.2552,0.1232,-0.2732
1764312944270,1.4824,5.6644,8.455,0.4829,-0.1403,-0.1733
1764312944280,1.8173,5.9121,8.0465,0.4829,-0.1403,-0.1733
1764312944290,1.8173,5.9121,8.0465,0.6515,-0.4829,-0.2129
1764312944300,2.187,6.2136,7.4907,0.6515,-0.4829,-0.2129
1764312944310,2.187,6.2136,7.4907,0.876,-0.989,-0.3813
1764312944320,1.9065,5.8977,7.6062,0.876,-0.989,-0.3813
1764312944330,1.9065,5.8977,7.6062,1.1715,-1.4369,-0.3496
1764312944340,1.1551,5.744,7.9328,1.1715,-1.4369,-0.3496
1764312944350,1.1551,5.744,7.9328,1.4236,-1.6373,-0.1895
1764312944360,0.4959,5.6501,7.2951,1.4236,-1.6373,-0.1895
1764312944370,0.4959,5.6501,7.2951,1.4236,-1.6373,-0.1895
1764312944380,0.4959,5.6501,7.2951,1.6093,-2.073,0.0698
1764312944390,0.402,5.5448,6.9535,1.6093,-2.073,0.0698
1764312944400,0.402,5.5448,6.9535,2.0568,-2.7434,0.2669
1764312944410,1.6092,5.8032,5.9306,2.0568,-2.7434,0.2669
1764312944420,1.6092,5.8032,5.9306,2.6202,-3.6104,0.2592
1764312944430,2.8397,6.4319,5.2086,2.6202,-3.6104,0.2592
1764312944440,2.8397,6.4319,5.2086,2.919,-3.8152,0.1756
1764312944450,3.0963,6.6951,4.1121,2.919,-3.8152,0.1756
1764312944460,3.0963,6.6951,4.1121,2.5742,-3.1945,0.2657
1764312944470,3.2177,7.5266,2.6261,2.5742,-3.1945,0.2657
1764312944480,3.2177,7.5266,2.6261,1.4371,-1.5734,0.5137
1764312944490,3.2177,7.5266,2.6261,1.4371,-1.5734,0.5137
1764312944500,4.3131,8.3013,2.5238,1.4371,-1.5734,0.5137
1764312944510,7.1306,9.8507,2.339,-0.6045,1.8218,0.8557
1764312944520,7.1306,9.8507,2.339,-0.6045,1.8218,0.8557
1764312944530,7.1306,9.8507,2.339,-3.9129,7.1853,0.877
1764312944540,9.7436,10.3334,2.1027,-3.9129,7.1853,0.877
1764312944550,9.7436,10.3334,2.1027,-7.6596,13.3068,0.3154
1764312944560,10.136,10.5314,2.726,-7.6596,13.3068,0.3154
1764312944570,10.136,10.5314,2.726,-10.6332,19.4437,-0.9325
1764312944580,5.9402,8.3749,-0.868,-10.6332,19.4437,-0.9325
1764312944590,5.9402,8.3749,-0.868,-10.8868,20.0472,-2.5569
1764312944600,-4.1617,1.9813,-3.9063,-10.8868,20.0472,-2.5569
1764312944610,-4.1617,1.9813,-3.9063,-7.0935,11.9323,-3.0415
1764312944620,-13.864,-4.3531,1.3125,-7.0935,11.9323,-3.0415
1764312944630,-13.864,-4.3531,1.3125,-7.0935,11.9323,-3.0415
1764312944640,-13.864,-4.3531,1.3125,-1.2857,0.9401,-2.3025
1764312944650,-14.7003,-5.8786,10.1246,-1.2857,0.9401,-2.3025
1764312944660,-14.7003,-5.8786,10.1246,2.0623,-3.2211,-1.0997
1764312944670,-11.5107,-4.8144,11.1075,2.0623,-3.2211,-1.0997
1764312944680,-11.5107,-4.8144,11.1075,1.5149,-1.0357,0.0832
1764312944690,-7.2658,-0.1771,5.0501,1.5149,-1.0357,0.0832
1764312944700,-7.2658,-0.1771,5.0501,-0.2069,0.3004,0.0848
1764312944710,-6.5976,1.4249,5.7392,-0.2069,0.3004,0.0848
1764312944720,-6.5976,1.4249,5.7392,-0.6174,-0.1465,-0.2784
1764312944730,-7.8784,0.6209,8.8594,-0.6174,-0.1465,-0.2784
1764312944740,-7.8784,0.6209,8.8594,0.2002,-1.1613,-0.2946
1764312944750,-8.3498,-0.2584,9.198,0.2002,-1.1613,-0.2946
1764312944760,-8.3498,-0.2584,9.198,0.2002,-1.1613,-0.2946
1764312944770,-8.1003,-0.4068,8.5968,1.0909,-2.2953,-0.0582
1764312944780,-8.1003,-0.4068,8.5968,1.0909,-2.2953,-0.0582
1764312944790,-8.1003,-0.4068,8.5968,1.8085,-3.4431,0.1826
1764312944800,-7.5601,-0.2183,7.2772,1.8085,-3.4431,0.1826
1764312944810,-7.5601,-0.2183,7.2772,2.4166,-4.9796,0.3871
1764312944820,-5.4365,0.3428,7.3902,2.4166,-4.9796,0.3871
1764312944830,-5.4365,0.3428,7.3902,3.1429,-6.8121,0.3496
1764312944840,-1.6953,1.672,9.2853,3.1429,-6.8121,0.3496
1764312944850,-1.6953,1.672,9.2853,4.1293,-8.5243,-0.1628
1764312944860,-0.1071,2.744,12.7394,4.1293,-8.5243,-0.1628
1764312944870,-0.1071,2.744,12.7394,5.3084,-9.0394,-0.6054
1764312944880,0.2405,3.1621,12.6263,5.3084,-9.0394,-0.6054
1764312944890,0.2405,3.1621,12.6263,5.3084,-9.0394,-0.6054
1764312944900,1.0158,4.5093,9.6347,5.5738,-7.8705,-0.6593
1764312944910,1.0158,4.5093,9.6347,5.5738,-7.8705,-0.6593
1764312944920,2.4323,5.9139,6.0718,4.0022,-4.5225,-0.3468
1764312944930,2.4323,5.9139,6.0718,4.0022,-4.5225,-0.3468
1764312944940,2.4323,5.9139,6.0718,1.2323,-0.6709,-0.1315
1764312944950,3.0736,6.7382,4.8251,1.2323,-0.6709,-0.1315
1764312944960,3.0736,6.7382,4.8251,-0.6326,1.321,-0.2092
1764312944970,1.8778,6.0215,5.9133,-0.6326,1.321,-0.2092
1764312944980,1.8778,6.0215,5.9133,-0.7454,1.1762,-0.3001
1764312944990,0.4804,5.2373,7.1103,-0.7454,1.1762,-0.3001
1764312945000,0.4804,5.2373,7.1103,0.0125,0.111,-0.1872
1764312945010,0.5809,4.8036,7.748,0.0125,0.111,-0.1872
1764312945020,0.5809,4.8036,7.748,0.4614,-0.188,-0.0308
1764312945030,1.1007,4.931,7.2102,0.4614,-0.188,-0.0308
1764312945040,1.1007,4.931,7.2102,0.4614,-0.188,-0.0308
1764312945050,1.7288,5.3139,6.603,0.3045,0.1206,0.0901
1764312945060,1.7288,5.3139,6.603,0.3045,0.1206,0.0901
1764312945070,1.7288,5.3139,6.603,-0.0994,0.4041,0.0945
1764312945080,1.9717,5.6871,6.7161,-0.0994,0.4041,0.0945
1764312945090,1.9717,5.6871,6.7161,-0.3836,0.3977,0.0023
1764312945100,1.9573,5.6626,7.9938,-0.3836,0.3977,0.0023
1764312945110,1.9573,5.6626,7.9938,-0.2608,0.1384,-0.1017
1764312945120,1.8221,5.5914,9.4056,-0.2608,0.1384,-0.1017
1764312945130,1.8221,5.5914,9.4056,0.226,-0.093,-0.157
1764312945140,1.9208,5.9282,9.3529,0.226,-0.093,-0.157
1764312945150,1.9208,5.9282,9.3529,0.5496,-0.1066,-0.2242
1764312945160,1.3101,5.275,8.5155,0.5496,-0.1066,-0.2242
1764312945170,1.3101,5.275,8.5155,0.628,-0.111,-0.087
1764312945180,0.8584,5.8367,7.1151,0.628,-0.111,-0.087
1764312945190,0.8584,5.8367,7.1151,0.628,-0.111,-0.087
1764312945200,0.8584,5.8367,7.1151,0.3884,-0.0683,0.1629
1764312945210,0.8997,5.9677,6.3793,0.3884,-0.0683,0.1629
1764312945220,0.8997,5.9677,6.3793,0.0423,-0.2233,0.3346
1764312945230,1.8694,6.0012,7.6606,0.0423,-0.2233,0.3346
1764312945240,1.8694,6.0012,7.6606,-0.0104,-0.069,0.288
1764312945250,2.385,5.7589,8.0734,-0.0104,-0.069,0.288
1764312945260,2.385,5.7589,8.0734,0.0426,0.1294,0.1202
1764312945270,2.1505,5.7266,7.7085,0.0426,0.1294,0.1202
1764312945280,2.1505,5.7266,7.7085,0.0899,0.1391,0.0115
1764312945290,1.9161,5.7266,7.4656,0.0899,0.1391,0.0115
1764312945300,1.9161,5.7266,7.4656,0.1156,0.1037,-0.0336
1764312945310,1.7629,5.8798,7.2227,0.1156,0.1037,-0.0336
1764312945320,1.7629,5.8798,7.2227,0.1156,0.1037,-0.0336
1764312945330,1.7629,5.8798,7.2227,0.1,0.0266,-0.0487
1764312945340,1.7575,5.985,7.2215,0.1,0.0266,-0.0487
1764312945350,1.7575,5.985,7.2215,0.0153,0.0284,-0.0406
1764312945360,1.7246,5.8828,7.5135,0.0153,0.0284,-0.0406
1764312945370,1.7246,5.8828,7.5135,-0.0336,0.0898,-0.0142
1764312945380,1.8538,5.9629,7.8353,-0.0336,0.0898,-0.0142
1764312945390,1.8538,5.9629,7.8353,0.011,0.0715,-0.0328
1764312945400,1.9681,6.1173,7.7958,0.011,0.0715,-0.0328
1764312945410,1.9681,6.1173,7.7958,0.1054,-0.0695,-0.1237
1764312945420,1.7192,5.9821,7.9125,0.1054,-0.0695,-0.1237
1764312945430,1.7192,5.9821,7.9125,0.1478,-0.1286,-0.14
1764312945440,1.5906,5.9456,7.8963,0.1478,-0.1286,-0.14
1764312945450,1.5906,5.9456,7.8963,0.1478,-0.1286,-0.14
1764312945460,1.4949,5.8684,8.0477,0.1816,-0.1695,-0.1257
1764312945470,1.4949,5.8684,8.0477,0.1816,-0.1695,-0.1257
1764312945480,1.4949,5.8684,8.0477,0.2028,-0.0722,-0.0761
1764312945490,1.3819,5.7936,7.8377,0.2028,-0.0722,-0.0761
1764312945500,1.3819,5.7936,7.8377,0.1717,0.0376,-0.0087
1764312945510,1.471,5.9533,7.3161,0.1717,0.0376,-0.0087
1764312945520,1.471,5.9533,7.3161,0.1313,-0.0883,0.0133
1764312945530,1.6253,6.006,7.5613,0.1313,-0.0883,0.0133
1764312945540,1.6253,6.006,7.5613,0.2083,-0.221,-0.0124
1764312945550,1.9382,6.1627,7.7605,0.2083,-0.221,-0.0124
1764312945560,1.9382,6.1627,7.7605,0.2996,-0.3212,-0.079
1764312945570,1.8748,6.0766,7.7653,0.2996,-0.3212,-0.079
1764312945580,1.8748,6.0766,7.7653,0.2996,-0.3212,-0.079
1764312945590,1.8748,6.0766,7.7653,0.3842,-0.2782,-0.1187
1764312945600,1.5422,6.2082,7.0528,0.3842,-0.2782,-0.1187
1764312945610,1.5422,6.2082,7.0528,0.3147,-0.3493,-0.0747
1764312945620,1.9113,6.3428,7.2963,0.3147,-0.3493,-0.0747
1764312945630,1.9113,6.3428,7.2963,0.2899,-0.3264,-0.0661
1764312945640,2.013,6.3057,7.3095,0.2899,-0.3264,-0.0661
1764312945650,2.013,6.3057,7.3095,0.2784,-0.2581,-0.0741
1764312945660,1.9573,6.4068,7.008,0.2784,-0.2581,-0.0741
1764312945670,1.9573,6.4068,7.008,0.1912,-0.1846,-0.0631
1764312945680,2.0213,6.4786,6.7286,0.1912,-0.1846,-0.0631
1764312945690,2.0213,6.4786,6.7286,0.1364,-0.2576,-0.0744
1764312945700,2.19,6.4929,7.054,0.1364,-0.2576,-0.0744
1764312945710,2.19,6.4929,7.054,0.1364,-0.2576,-0.0744
1764312945720,2.0961,6.3775,7.2503,0.2182,-0.3903,-0.1303
1764312945730,2.0961,6.3775,7.2503,0.2182,-0.3903,-0.1303
1764312945740,2.0961,6.3775,7.2503,0.3551,-0.4597,-0.1657
1764312945750,2.0638,6.4528,7.0576,0.3551,-0.4597,-0.1657
1764312945760,2.0638,6.4528,7.0576,0.4262,-0.4902,-0.177
1764312945770,1.8891,6.3039,6.7543,0.4262,-0.4902,-0.177
1764312945780,1.8891,6.3039,6.7543,0.4233,-0.4633,-0.1423
1764312945790,1.6175,6.3829,6.5725,0.4233,-0.4633,-0.1423
1764312945800,1.6175,6.3829,6.5725,0.2886,-0.2486,-0.0421
1764312945810,1.8999,6.6598,6.6586,0.2886,-0.2486,-0.0421
1764312945820,1.8999,6.6598,6.6586,-0.1643,0.6086,0.0793
1764312945830,2.3892,6.9643,6.7466,-0.1643,0.6086,0.0793
1764312945840,2.3892,6.9643,6.7466,-0.1643,0.6086,0.0793
1764312945850,2.3892,6.9643,6.7466,-1.2295,2.697,0.2469
1764312945860,-0.2937,6.4702,6.1065,-1.2295,2.697,0.2469
1764312945870,-0.2937,6.4702,6.1065,-3.1427,6.225,1.0249
1764312945880,1.0881,6.5695,3.0323,-3.1427,6.225,1.0249
1764312945890,1.0881,6.5695,3.0323,-5.8002,9.3725,1.1584
1764312945900,1.5685,5.9599,2.9019,-5.8002,9.3725,1.1584
1764312945910,1.5685,5.9599,2.9019,-7.7516,11.3586,0.5333
1764312945920,1.6546,5.1506,4.8544,-7.7516,11.3586,0.5333
1764312945930,1.6546,5.1506,4.8544,-7.9307,11.7541,-0.728
1764312945940,-0.8136,3.082,6.9571,-7.9307,11.7541,-0.728
1764312945950,-0.8136,3.082,6.9571,-6.0702,9.9739,-2.0719
1764312945960,-7.2371,-1.2138,5.8875,-6.0702,9.9739,-2.0719
1764312945970,-7.2371,-1.2138,5.8875,-2.9071,4.9918,-2.2544
1764312945980,-11.8265,-3.5204,5.476,-2.9071,4.9918,-2.2544
1764312945990,-11.8265,-3.5204,5.476,-2.9071,4.9918,-2.2544
1764312946000,-12.5318,-4.3902,7.4943,-0.2558,-0.0747,-1.7762
1764312946010,-12.5318,-4.3902,7.4943,-0.2558,-0.0747,-1.7762
1764312946020,-12.5318,-4.3902,7.4943,0.4545,-1.5649,-0.9105
1764312946030,-11.0626,-3.3751,9.2064,0.4545,-1.5649,-0.9105
1764312946040,-11.0626,-3.3751,9.2064,0.069,-0.6286,-0.2141
1764312946050,-9.533,-1.9316,8.6034,0.069,-0.6286,-0.2141
1764312946060,-9.533,-1.9316,8.6034,-0.1356,-0.2123,0.0564
1764312946070,-8.7721,-0.8824,8.3013,-0.1356,-0.2123,0.0564
1764312946080,-8.7721,-0.8824,8.3013,0.1466,-0.6669,0.1353
1764312946090,-8.1278,-0.597,8.1003,0.1466,-0.6669,0.1353
1764312946100,-8.1278,-0.597,8.1003,0.3648,-1.011,0.2022
1764312946110,-6.6903,-0.5204,8.2678,0.3648,-1.011,0.2022
1764312946120,-6.6903,-0.5204,8.2678,0.3648,-1.011,0.2022
1764312946130,-5.9695,-0.1932,8.5759,0.2324,-0.6083,0.1544
1764312946140,-5.9695,-0.1932,8.5759,0.2324,-0.6083,0.1544
1764312946150,-5.9695,-0.1932,8.5759,0.0619,0.1671,0.0397
1764312946160,-6.789,-0.5617,7.3125,0.0619,0.1671,0.0397
1764312946170,-6.789,-0.5617,7.3125,0.0183,0.1949,0.1122
1764312946180,-6.5886,-0.4654,6.8692,0.0183,0.1949,0.1122
1764312946190,-6.5886,-0.4654,6.8692,0.1342,-0.1225,0.1423
1764312946200,-5.607,0.1101,6.9763,0.1342,-0.1225,0.1423
1764312946210,-5.607,0.1101,6.9763,0.1303,-0.0991,-0.0064
1764312946220,-5.744,0.1232,6.6676,0.1303,-0.0991,-0.0064
1764312946230,-5.744,0.1232,6.6676,-0.031,0.0678,-0.1034
1764312946240,-6.4522,-0.1663,6.4768,-0.031,0.0678,-0.1034
1764312946250,-6.4522,-0.1663,6.4768,-0.1052,-0.0475,-0.0857
1764312946260,-6.8847,-0.2423,6.8806,-0.1052,-0.0475,-0.0857
1764312946270,-6.8847,-0.2423,6.8806,-0.1052,-0.0475,-0.0857
1764312946280,-6.8847,-0.2423,6.8806,0.0336,-0.3955,-0.0316
1764312946290,-6.9165,-0.1274,7.3478,0.0336,-0.3955,-0.0316
1764312946300,-6.9165,-0.1274,7.3478,0.2618,-0.765,-0.002
1764312946310,-6.6503,-0.1711,7.4237,0.2618,-0.765,-0.002
1764312946320,-6.6503,-0.1711,7.4237,0.4661,-1.1906,-0.014
1764312946330,-6.5976,-0.2231,7.2084,0.4661,-1.1906,-0.014
1764312946340,-6.5976,-0.2231,7.2084,0.7427,-2.0015,-0.0544
1764312946350,-6.3924,-0.4415,8.284,0.7427,-2.0015,-0.0544
1764312946360,-6.3924,-0.4415,8.284,0.7427,-2.0015,-0.0544
1764312946370,-5.5496,-0.1304,9.6509,1.3781,-3.1324,-0.0764
1764312946380,-5.5496,-0.1304,9.6509,2.2626,-4.1236,-0.1506
1764312946390,-5.0644,0.1376,9.5539,2.2626,-4.1236,-0.1506
1764312946400,-5.0644,0.1376,9.5539,2.2626,-4.1236,-0.1506
1764312946410,-4.8592,0.3236,9.466,2.6873,-4.6808,-0.1321
1764312946420,-4.8592,0.3236,9.466,2.6873,-4.6808,-0.1321
1764312946430,-4.8592,0.3236,9.466,2.6554,-4.8289,0.0441
1764312946440,-3.5145,0.7053,10.7904,2.6554,-4.8289,0.0441
1764312946450,-3.5145,0.7053,10.7904,2.6873,-4.4665,0.2136
1764312946460,-2.1039,1.5266,12.1699,2.6873,-4.4665,0.2136
1764312946470,-2.1039,1.5266,12.1699,2.5391,-3.1182,0.3317
1764312946480,-1.3747,2.4006,10.5458,2.5391,-3.1182,0.3317
1764312946490,-1.3747,2.4006,10.5458,1.762,-1.4354,0.389
1764312946500,-0.8441,3.4995,8.3145,1.762,-1.4354,0.389
1764312946510,-0.8441,3.4995,8.3145,0.7427,-0.1782,0.328
1764312946520,-0.6999,3.8369,7.2646,0.7427,-0.1782,0.328
1764312946530,-0.6999,3.8369,7.2646,0.7427,-0.1782,0.328
1764312946540,-0.6999,3.8369,7.2646,0.1469,0.1064,0.1819
1764312946550,-1.0702,3.3864,8.0369,0.1469,0.1064,0.1819
1764312946560,-1.0702,3.3864,8.0369,0.2395,-0.1941,0.1167
1764312946570,-1.4662,2.8493,8.7087,0.2395,-0.1941,0.1167
1764312946580,-1.4662,2.8493,8.7087,0.5809,-0.5907,0.1842
1764312946590,-1.3555,2.7021,9.0084,0.5809,-0.5907,0.1842
1764312946600,-1.3555,2.7021,9.0084,0.7834,-0.7112,0.3073
1764312946610,-0.4917,3.2189,8.4084,0.7834,-0.7112,0.3073
1764312946620,-0.4917,3.2189,8.4084,0.6913,-0.7981,0.2576
1764312946630,0.0084,3.7615,8.3605,0.6913,-0.7981,0.2576
1764312946640,0.0084,3.7615,8.3605,0.6446,-1.0912,0.0988
1764312946650,-0.317,3.7531,9.4277,0.6446,-1.0912,0.0988
1764312946660,-0.317,3.7531,9.4277,0.6446,-1.0912,0.0988
1764312946670,-0.3015,3.7597,10.1103,0.8282,-1.2708,0.0857
1764312946680,-0.3015,3.7597,10.1103,0.8282,-1.2708,0.0857
1764312946690,-0.3015,3.7597,10.1103,1.0379,-1.1877,0.1961
1764312946700,0.0544,3.8985,9.8459,1.0379,-1.1877,0.1961
1764312946710,0.0544,3.8985,9.8459,1.117,-0.9772,0.3132
1764312946720,0.6335,4.4399,8.6207,1.117,-0.9772,0.3132
1764312946730,0.6335,4.4399,8.6207,1.0513,-0.9704,0.3126
1764312946740,1.1773,5.0189,7.9137,1.0513,-0.9704,0.3126
1764312946750,1.1773,5.0189,7.9137,0.8445,-0.9319,0.245
1764312946760,1.5679,5.2768,7.8712,0.8445,-0.9319,0.245
1764312946770,1.5679,5.2768,7.8712,0.4963,-0.5452,0.1888
1764312946780,1.6971,5.3013,7.8694,0.4963,-0.5452,0.1888
1764312946790,1.6971,5.3013,7.8694,0.4963,-0.5452,0.1888
1764312946800,1.6971,5.3013,7.8694,0.0843,0.0681,0.1636
1764312946810,1.5996,5.0668,7.7797,0.0843,0.0681,0.1636
1764312946820,1.5996,5.0668,7.7797,-0.1639,0.4018,0.1243
1764312946830,1.334,4.9723,7.5721,-0.1639,0.4018,0.1243
1764312946840,1.334,4.9723,7.5721,-0.0767,-0.0002,0.0518
1764312946850,1.6588,4.9597,8.3761,-0.0767,-0.0002,0.0518
1764312946860,1.6588,4.9597,8.3761,0.1448,-0.2917,-0.0699
1764312946870,2.0136,5.0172,8.7829,0.1448,-0.2917,-0.0699
1764312946880,2.0136,5.0172,8.7829,0.1648,-0.1365,-0.2121
1764312946890,2.6285,5.5262,9.3847,0.1648,-0.1365,-0.2121
1764312946900,2.6285,5.5262,9.3847,0.1648,-0.1365,-0.2121
1764312946910,0.8076,4.5272,8.9617,0.0843,0.3522,-0.4404
1764312946920,0.8076,4.5272,8.9617,0.124,0.4974,-0.3239
1764312946930,-1.2616,4.1504,7.5392,0.124,0.4974,-0.3239
1764312946940,-1.2616,4.1504,7.5392,0.124,0.4974,-0.3239
1764312946950,-1.0259,4.7617,7.9089,0.017,-0.1139,0.2417
1764312946960,-1.0259,4.7617,7.9089,0.017,-0.1139,0.2417
1764312946970,-1.0259,4.7617,7.9089,0.0345,-0.6672,0.5983
1764312946980,1.1898,4.7216,9.0449,0.0345,-0.6672,0.5983
1764312946990,1.1898,4.7216,9.0449,0.2181,-0.6466,0.4314
1764312947000,2.3097,4.867,9.4457,0.2181,-0.6466,0.4314
1764312947010,2.3097,4.867,9.4457,0.303,-0.2931,0.093
1764312947020,1.8389,5.0345,8.9904,0.303,-0.2931,0.093
1764312947030,1.8389,5.0345,8.9904,0.2075,0.0634,-0.0747
1764312947040,1.0654,4.8497,8.2379,0.2075,0.0634,-0.0747
1764312947050,1.0654,4.8497,8.2379,0.2075,0.0634,-0.0747
1764312947060,1.0654,4.8497,8.2379,0.0851,0.2141,-0.0441
1764312947070,0.8183,5.0871,7.7611,0.0851,0.2141,-0.0441
1764312947080,0.9607,5.0824,7.8311,0.0519,0.0438,0.0133
1764312947090,0.9607,5.0824,7.8311,0.0519,0.0438,0.0133
1764312947100,0.9607,5.0824,7.8311,0.0687,-0.0947,0.0322
1764312947110,1.2652,5.0231,8.1775,0.0687,-0.0947,0.0322
1764312947120,1.2652,5.0231,8.1775,0.0761,-0.0388,0.0524
1764312947130,1.3591,5.0046,7.7019,0.0761,-0.0388,0.0524
1764312947140,1.3591,5.0046,7.7019,-0.0454,0.0402,0.0466
1764312947150,1.3842,5.1051,7.9633,-0.0454,0.0402,0.0466
1764312947160,1.3842,5.1051,7.9633,-0.1643,0.0718,0.017
1764312947170,1.5063,5.1338,8.6698,-0.1643,0.0718,0.017
1764312947180,1.5063,5.1338,8.6698,-0.1155,0.0922,-0.0406
1764312947190,1.6624,5.0955,8.9312,-0.1155,0.0922,-0.0406
1764312947200,1.6624,5.0955,8.9312,-0.1155,0.0922,-0.0406
1764312947210,1.276,5.1254,8.7242,-0.022,0.0761,-0.1122
1764312947220,1.276,5.1254,8.7242,-0.022,0.0761,-0.1122
1764312947230,1.276,5.1254,8.7242,0.0399,0.0589,-0.1284
1764312947240,0.9751,5.0716,8.7182,0.0399,0.0589,-0.1284
1764312947250,0.9751,5.0716,8.7182,0.0825,0.0145,-0.0898
1764312947260,1.0349,4.9071,9.0209,0.0825,0.0145,-0.0898
1764312947270,1.0349,4.9071,9.0209,0.1408,0.0589,-0.0564
1764312947280,1.4339,5.1751,8.6237,0.1408,0.0589,-0.0564
1764312947290,1.4339,5.1751,8.6237,0.1428,0.0137,-0.1237
1764312947300,1.118,5.0363,8.5149,0.1428,0.0137,-0.1237
1764312947310,1.118,5.0363,8.5149,0.1313,-0.0197,-0.1284
1764312947320,0.7292,5.004,8.4239,0.1313,-0.0197,-0.1284
1764312947330,0.7292,5.004,8.4239,0.1949,-0.146,-0.0777
1764312947340,0.7801,4.995,8.4191,0.1949,-0.146,-0.0777
1764312947350,0.7801,4.995,8.4191,0.1949,-0.146,-0.0777
1764312947360,0.7801,4.995,8.4191,0.2902,-0.2581,-0.0528
1764312947370,1.1665,5.0716,8.3767,0.2902,-0.2581,-0.0528
1764312947380,1.1665,5.0716,8.3767,0.3016,-0.2112,-0.0776
1764312947390,1.2491,5.0572,8.2313,0.3016,-0.2112,-0.0776
1764312947400,1.2491,5.0572,8.2313,0.2871,-0.1939,-0.1101
1764312947410,1.0702,5.1601,8.0847,0.2871,-0.1939,-0.1101
1764312947420,1.0702,5.1601,8.0847,0.3155,-0.3581,-0.0944
1764312947430,1.2365,5.3946,8.1308,0.3155,-0.3581,-0.0944
1764312947440,1.2365,5.3946,8.1308,0.3604,-0.5247,-0.1078
1764312947450,1.3914,5.4491,8.3396,0.3604,-0.5247,-0.1078
1764312947460,1.3914,5.4491,8.3396,0.4504,-0.6289,-0.1457
1764312947470,1.6499,5.5466,8.5531,0.4504,-0.6289,-0.1457
1764312947480,1.6499,5.5466,8.5531,0.4504,-0.6289,-0.1457
1764312947490,1.6499,5.5466,8.5531,0.5834,-0.6942,-0.2097
1764312947500,1.5458,5.4431,8.3222,0.5834,-0.6942,-0.2097
1764312947510,1.5458,5.4431,8.3222,0.7094,-0.7659,-0.2511
1764312947520,1.1695,5.3874,7.7767,0.7094,-0.7659,-0.2511
1764312947530,1.1695,5.3874,7.7767,0.7972,-1.0198,-0.1933
1764312947540,-0.3529,5.1063,8.1846,0.7972,-1.0198,-0.1933
1764312947550,-0.3529,5.1063,8.1846,0.8876,-0.8167,0.157
1764312947560,-0.2728,4.6834,8.9761,0.8876,-0.8167,0.157
1764312947570,-0.2728,4.6834,8.9761,0.0499,1.7049,1.0316
1764312947580,3.9637,6.0909,8.1661,0.0499,1.7049,1.0316
1764312947590,3.9637,6.0909,8.1661,-2.3361,6.3454,1.0994
1764312947600,8.2726,8.8738,8.0895,-2.3361,6.3454,1.0994
1764312947610,8.2726,8.8738,8.0895,-2.3361,6.3454,1.0994
1764312947620,9.3589,9.7514,3.6598,-5.3753,12.3789,0.2489
1764312947630,9.3589,9.7514,3.6598,-5.3753,12.3789,0.2489
1764312947640,9.3589,9.7514,3.6598,-7.7113,16.0618,-1.2573
1764312947650,3.9368,8.1846,-1.0971,-7.7113,16.0618,-1.2573
1764312947660,3.9368,8.1846,-1.0971,-6.9875,13.583,-2.8445
1764312947670,-5.1589,2.1996,-2.0943,-6.9875,13.583,-2.8445
1764312947680,-5.1589,2.1996,-2.0943,-3.5618,6.5369,-3.4578
1764312947690,-13.4812,-3.8782,0.5198,-3.5618,6.5369,-3.4578
1764312947700,-13.4812,-3.8782,0.5198,-0.4994,-0.1956,-2.5105
1764312947710,-14.7123,-5.7601,6.8662,-0.4994,-0.1956,-2.5105
1764312947720,-14.7123,-5.7601,6.8662,0.471,-1.6243,-0.9433
1764312947730,-10.3334,-3.1633,8.1565,0.471,-1.6243,-0.9433
1764312947740,-10.3334,-3.1633,8.1565,0.471,-1.6243,-0.9433
1764312947750,-10.3334,-3.1633,8.1565,0.0223,-0.2728,-0.2906
1764312947760,-7.6074,-0.0586,5.8463,0.0223,-0.2728,-0.2906
1764312947770,-7.6074,-0.0586,5.8463,-0.5137,0.0788,-0.5072
1764312947780,-8.5442,0.0114,5.8995,-0.5137,0.0788,-0.5072
1764312947790,-8.5442,0.0114,5.8995,-0.4461,-0.6289,-0.5785
1764312947800,-9.2997,-0.5904,7.081,-0.4461,-0.6289,-0.5785
1764312947810,-9.2997,-0.5904,7.081,0.011,-1.5656,-0.3691
1764312947820,-9.5964,-1.5254,8.4503,0.011,-1.5656,-0.3691
1764312947830,-9.5964,-1.5254,8.4503,0.8205,-2.629,-0.0057
1764312947840,-8.4532,-1.5476,7.5003,0.8205,-2.629,-0.0057
1764312947850,-8.4532,-1.5476,7.5003,1.8578,-4.725,0.1316
1764312947860,-7.151,-0.9906,8.5508,1.8578,-4.725,0.1316
1764312947870,-7.151,-0.9906,8.5508,3.073,-6.9029,0.1011
1764312947880,-6.1274,-1.2108,11.1302,3.073,-6.9029,0.1011
1764312947890,-6.1274,-1.2108,11.1302,3.073,-6.9029,0.1011
1764312947900,-6.1274,-1.2108,11.1302,4.3597,-8.2305,0.2372
1764312947910,-3.7627,-0.1609,12.7621,4.3597,-8.2305,0.2372
1764312947920,-3.7627,-0.1609,12.7621,5.4659,-8.4156,0.2815
1764312947930,-0.8979,1.7312,11.9994,5.4659,-8.4156,0.2815
1764312947940,-0.8979,1.7312,11.9994,5.4685,-7.094,0.1177
1764312947950,0.6616,3.856,9.3906,5.4685,-7.094,0.1177
1764312947960,0.6616,3.856,9.3906,4.2064,-4.864,-0.0886
1764312947970,1.0828,4.8969,7.5936,4.2064,-4.864,-0.0886
1764312947980,1.0828,4.8969,7.5936,2.4874,-2.5128,-0.0956
1764312947990,1.0977,5.4861,6.7083,2.4874,-2.5128,-0.0956
1764312948000,1.0977,5.4861,6.7083,2.4874,-2.5128,-0.0956
1764312948010,1.0301,5.3934,6.0796,1.1191,-0.6758,0.0157
1764312948020,1.0301,5.3934,6.0796,1.1191,-0.6758,0.0157
1764312948030,0.9075,5.0219,5.8062,0.1723,0.4126,0.1067
1764312948040,0.9075,5.0219,5.8062,0.1723,0.4126,0.1067
1764312948050,0.9075,5.0219,5.8062,-0.0134,0.1298,0.0816
1764312948060,1.273,4.9789,6.786,-0.0134,0.1298,0.0816
1764312948070,1.273,4.9789,6.786,0.4264,-0.6912,-0.0727
1764312948080,1.0672,4.5619,7.9316,0.4264,-0.6912,-0.0727
1764312948090,1.0672,4.5619,7.9316,0.7321,-0.9068,-0.0788
1764312948100,0.6251,4.4853,7.7145,0.7321,-0.9068,-0.0788
1764312948110,0.6251,4.4853,7.7145,0.5809,-0.5826,0.1301
1764312948120,0.8626,4.94,7.2867,0.5809,-0.5826,0.1301
1764312948130,0.8626,4.94,7.2867,0.1787,-0.1155,0.3085
1764312948140,1.5535,5.3581,7.2568,0.1787,-0.1155,0.3085
1764312948150,1.5535,5.3581,7.2568,0.1787,-0.1155,0.3085
1764312948160,1.5535,5.3581,7.2568,-0.141,0.0947,0.3044
1764312948170,2.6189,5.8014,7.8341,-0.141,0.0947,0.3044
1764312948180,2.6189,5.8014,7.8341,-0.1895,-0.0125,0.0715
1764312948190,3.7615,6.0455,9.8411,-0.1895,-0.0125,0.0715
1764312948200,3.7615,6.0455,9.8411,-0.0977,0.5728,-0.2671
1764312948210,2.4084,5.7733,10.1468,-0.0977,0.5728,-0.2671
1764312948220,2.4084,5.7733,10.1468,-0.0657,1.2178,-0.2535
1764312948230,0.5246,4.5308,9.1184,-0.0657,1.2178,-0.2535
1764312948240,0.5246,4.5308,9.1184,-0.0869,1.6646,0.2311
1764312948250,-0.2955,5.6291,6.1065,-0.0869,1.6646,0.2311
1764312948260,-0.2955,5.6291,6.1065,-0.0869,1.6646,0.2311
1764312948270,0.9607,5.6967,7.2682,-0.4644,1.0492,0.5649
1764312948280,0.9607,5.6967,7.2682,-0.4644,1.0492,0.5649
1764312948290,2.0752,5.1751,8.7272,-0.323,0.37,0.464
1764312948300,2.0752,5.1751,8.7272,-0.323,0.37,0.464
1764312948310,2.0752,5.1751,8.7272,0.1428,-0.0128,0.1321
1764312948320,1.4901,4.9705,8.5555,0.1428,-0.0128,0.1321
1764312948330,1.4901,4.9705,8.5555,0.2891,0.0345,0.018
1764312948340,0.6377,4.9663,7.3256,0.2891,0.0345,0.018
1764312948350,0.6377,4.9663,7.3256,0.0997,0.0451,0.0786
1764312948360,0.408,5.2271,6.9153,0.0997,0.0451,0.0786
1764312948370,0.408,5.2271,6.9153,-0.0791,-0.1374,0.1324
1764312948380,1.0588,5.3426,7.6606,-0.0791,-0.1374,0.1324
1764312948390,1.0588,5.3426,7.6606,-0.0783,-0.2172,0.0878
1764312948400,1.3543,5.2774,8.2744,-0.0783,-0.2172,0.0878
1764312948410,1.3543,5.2774,8.2744,-0.0709,-0.0825,0.0388
1764312948420,1.3896,5.2164,8.3139,-0.0709,-0.0825,0.0388
1764312948430,1.3896,5.2164,8.3139,-0.0709,-0.0825,0.0388
1764312948440,1.3896,5.2164,8.3139,-0.1304,0.0756,0.0144
1764312948450,1.6044,5.4162,8.4114,-0.1304,0.0756,0.0144
1764312948460,1.6044,5.4162,8.4114,-0.1907,0.1081,-0.0626
1764312948470,1.6187,5.3581,8.8056,-0.1907,0.1081,-0.0626
1764312948480,1.6187,5.3581,8.8056,-0.1173,0.0768,-0.1526
1764312948490,1.054,5.2241,8.9073,-0.1173,0.0768,-0.1526
1764312948500,1.054,5.2241,8.9073,0.0108,-0.0817,-0.1431
1764312948510,0.8554,5.0309,9.0275,0.0108,-0.0817,-0.1431
1764312948520,0.8554,5.0309,9.0275,0.1429,-0.1139,-0.0768
1764312948530,0.7765,4.9831,8.5364,0.1429,-0.1139,-0.0768
1764312948540,0.7765,4.9831,8.5364,0.1449,-0.1513,-0.0267
1764312948550,1.0349,5.0507,8.6016,0.1449,-0.1513,-0.0267
1764312948560,1.0349,5.0507,8.6016,0.1449,-0.1513,-0.0267
1764312948570,1.0241,5.1111,8.129,0.1649,-0.0901,-0.0226
1764312948580,1.0241,5.1111,8.129,0.1649,-0.0901,-0.0226
1764312948590,1.0241,5.1111,8.129,0.1168,-0.1005,-0.0434
1764312948600,0.7448,5.1314,8.0937,0.1168,-0.1005,-0.0434
1764312948610,0.7448,5.1314,8.0937,0.1225,-0.2755,-0.0267
1764312948620,0.9206,5.1924,8.6776,0.1225,-0.2755,-0.0267
1764312948630,0.9206,5.1924,8.6776,0.2346,-0.3375,-0.0356
1764312948640,1.2957,5.1733,8.951,0.2346,-0.3375,-0.0356
1764312948650,1.2957,5.1733,8.951,0.4198,-0.3806,-0.0932
1764312948660,1.3986,5.2487,8.592,0.4198,-0.3806,-0.0932
1764312948670,1.3986,5.2487,8.592,0.5449,-0.4152,-0.1339
1764312948680,1.3238,5.3551,8.2199,0.5449,-0.4152,-0.1339
1764312948690,1.3238,5.3551,8.2199,0.5449,-0.4152,-0.1339
1764312948700,1.3238,5.3551,8.2199,0.5469,-0.4531,-0.1321
1764312948710,1.2909,5.5717,8.0572,0.5469,-0.4531,-0.1321
1764312948720,1.2909,5.5717,8.0572,0.529,-0.5227,-0.1064
1764312948730,1.7025,5.802,7.949,0.529,-0.5227,-0.1064
1764312948740,1.7025,5.802,7.949,0.5594,-0.6384,-0.1746
1764312948750,1.8185,5.9091,7.7222,0.5594,-0.6384,-0.1746
1764312948760,1.8185,5.9091,7.7222,0.651,-0.8514,-0.2787
1764312948770,1.2694,5.6411,7.6032,0.651,-0.8514,-0.2787
1764312948780,1.2694,5.6411,7.6032,0.8913,-1.358,-0.2882
1764312948790,-0.8459,4.9035,8.0495,0.8913,-1.358,-0.2882
1764312948800,-0.8459,4.9035,8.0495,1.463,-2.1257,0.1353
1764312948810,-0.8459,4.9035,8.0495,1.463,-2.1257,0.1353
1764312948820,0.0179,4.6816,8.8283,1.463,-2.1257,0.1353
1764312948830,0.0179,4.6816,8.8283,1.8967,-1.9671,0.5854
1764312948840,2.0082,5.1434,8.6219,1.8967,-1.9671,0.5854
1764312948850,2.0082,5.1434,8.6219,1.7176,-0.6929,0.7427
1764312948860,3.4887,6.3757,6.8453,1.7176,-0.6929,0.7427
1764312948870,3.4887,6.3757,6.8453,0.6564,1.2892,0.7743
1764312948880,5.2289,7.9316,5.5149,0.6564,1.2892,0.7743
1764312948890,5.2289,7.9316,5.5149,-1.0915,3.9314,0.5076
1764312948900,6.2435,8.3557,5.8301,-1.0915,3.9314,0.5076
1764312948910,6.2435,8.3557,5.8301,-2.9702,7.6474,0.1721
1764312948920,7.3376,9.597,4.3848,-2.9702,7.6474,0.1721
1764312948930,7.3376,9.597,4.3848,-5.6832,13.0956,-0.379
1764312948940,8.6967,9.7615,0.1436,-5.6832,13.0956,-0.379
1764312948950,8.6967,9.7615,0.1436,-8.4121,17.2896,-1.462
1764312948960,8.6967,9.7615,0.1436,-8.4121,17.2896,-1.462
1764312948970,7.745,9.4804,-3.0981,-8.4121,17.2896,-1.462
1764312948980,7.745,9.4804,-3.0981,-8.4365,16.6535,-3.3755
1764312948990,0.2411,5.47,-7.5864,-8.4365,16.6535,-3.3755
1764312949000,0.2411,5.47,-7.5864,-4.7999,8.5352,-5.1844
1764312949010,-12.9338,-4.532,-6.0431,-4.7999,8.5352,-5.1844
1764312949020,-12.9338,-4.532,-6.0431,-0.7417,-1.6333,-4.7096
1764312949030,-16.8856,-10.7569,8.2493,-0.7417,-1.6333,-4.7096
1764312949040,-16.8856,-10.7569,8.2493,0.3262,-2.6205,-2.2417
1764312949050,-13.3071,-7.587,11.4616,0.3262,-2.6205,-2.2417
1764312949060,-13.3071,-7.587,11.4616,0.1095,-0.2356,-0.6446
1764312949070,-8.869,-2.415,5.1733,0.1095,-0.2356,-0.6446
1764312949080,-8.869,-2.415,5.1733,-0.181,-0.6941,-0.9218
1764312949090,-9.6682,-2.144,6.6263,-0.181,-0.6941,-0.9218
1764312949100,-9.6682,-2.144,6.6263,-0.181,-0.6941,-0.9218
1764312949110,-9.6682,-2.144,6.6263,-0.1849,-1.272,-1.1223
1764312949120,-11.138,-3.2028,8.9815,-0.1849,-1.272,-1.1223
1764312949130,-11.138,-3.2028,8.9815,0.0423,-1.2895,-0.7578
1764312949140,-10.9256,-3.125,9.9673,0.0423,-1.2895,-0.7578
1764312949150,-10.9256,-3.125,9.9673,0.5486,-1.3876,-0.3361
1764312949160,-9.7244,-2.7021,8.3689,0.5486,-1.3876,-0.3361
1764312949170,-9.7244,-2.7021,8.3689,1.137,-2.3996,-0.1782
1764312949180,-8.6889,-2.4616,8.196,1.137,-2.3996,-0.1782
1764312949190,-8.6889,-2.4616,8.196,1.9335,-3.8353,-0.0736
1764312949200,-7.1755,-1.9687,8.6315,1.9335,-3.8353,-0.0736
1764312949210,-7.1755,-1.9687,8.6315,1.9335,-3.8353,-0.0736
1764312949220,-4.7551,-1.3914,10.2688,2.8196,-5.2609,-0.082
1764312949230,-4.7551,-1.3914,10.2688,2.8196,-5.2609,-0.082
1764312949240,-3.0712,-0.5731,11.9318,3.7356,-6.3137,-0.3241
1764312949250,-3.0712,-0.5731,11.9318,3.7356,-6.3137,-0.3241
1764312949260,-3.0712,-0.5731,11.9318,4.9515,-7.3366,-0.7741
1764312949270,-3.6562,-0.4576,12.9625,4.9515,-7.3366,-0.7741
1764312949280,-3.6562,-0.4576,12.9625,5.9071,-7.6917,-0.7509
1764312949290,-2.0979,0.4917,11.0471,5.9071,-7.6917,-0.7509
1764312949300,-2.0979,0.4917,11.0471,5.6459,-6.9898,-0.6298
1764312949310,-0.338,2.0148,10.1803,5.6459,-6.9898,-0.6298
1764312949320,-0.338,2.0148,10.1803,4.7275,-5.3961,-0.5059
1764312949330,1.1103,3.6239,9.4564,4.7275,-5.3961,-0.5059
1764312949340,1.1103,3.6239,9.4564,3.5284,-3.0207,-0.4123
1764312949350,1.7246,4.7557,7.0475,3.5284,-3.0207,-0.4123
1764312949360,1.7246,4.7557,7.0475,3.5284,-3.0207,-0.4123
1764312949370,1.1139,5.3821,4.6481,2.1087,-0.8897,-0.352
1764312949380,1.1139,5.3821,4.6481,2.1087,-0.8897,-0.352
1764312949390,1.1139,5.3821,4.6481,1.025,-0.0617,-0.2755
1764312949400,0.5695,5.2068,4.0403,1.025,-0.0617,-0.2755
1764312949410,0.5695,5.2068,4.0403,0.5322,-0.2141,-0.223
1764312949420,0.3314,4.9878,5.2056,0.5322,-0.2141,-0.223
1764312949430,0.3314,4.9878,5.2056,0.4276,-0.4226,-0.1213
1764312949440,0.6814,4.7055,6.5647,0.4276,-0.4226,-0.1213
1764312949450,0.6814,4.7055,6.5647,0.2321,-0.0003,0.0515
1764312949460,1.0181,4.6917,6.542,0.2321,-0.0003,0.0515
1764312949470,1.0181,4.6917,6.542,-0.1478,0.522,0.1923
1764312949480,1.2634,4.9065,6.2806,-0.1478,0.522,0.1923
1764312949490,1.2634,4.9065,6.2806,-0.3879,0.4778,0.2176
1764312949500,1.2233,4.9322,7.1593,-0.3879,0.4778,0.2176
1764312949510,1.2233,4.9322,7.1593,-0.3879,0.4778,0.2176
1764312949520,1.2233,4.9322,7.1593,-0.3235,0.1646,0.2408
1764312949530,2.184,5.3617,8.5214,-0.3235,0.1646,0.2408
1764312949540,2.184,5.3617,8.5214,-0.1773,0.1891,0.1345
1764312949550,3.2417,5.6722,10.0193,-0.1773,0.1891,0.1345
1764312949560,3.2417,5.6722,10.0193,-0.1251,0.9722,-0.0719
1764312949570,2.3815,5.6489,9.8088,-0.1251,0.9722,-0.0719
1764312949580,2.3815,5.6489,9.8088,-0.2863,1.8897,-0.0043
1764312949590,0.0299,4.8754,7.8132,-0.2863,1.8897,-0.0043
1764312949600,0.0299,4.8754,7.8132,-0.6367,2.0995,0.502
1764312949610,-0.6796,5.5035,6.1274,-0.6367,2.0995,0.502
1764312949620,-0.6796,5.5035,6.1274,-1.0061,1.409,0.8517
1764312949630,0.3637,5.1894,8.0782,-1.0061,1.409,0.8517
1764312949640,0.3637,5.1894,8.0782,-1.0061,1.409,0.8517
1764312949650,2.6381,5.4156,10.733,-0.6028,0.2718,0.773
1764312949660,2.6381,5.4156,10.733,-0.6028,0.2718,0.773
1764312949670,2.6381,5.4156,10.733,0.3106,-0.1329,0.2925
1764312949680,2.863,5.263,9.9523,0.3106,-0.1329,0.2925
1764312949690,2.863,5.263,9.9523,0.8296,-0.3451,-0.0906
1764312949700,1.279,4.9759,8.2493,0.8296,-0.3451,-0.0906
1764312949710,1.279,4.9759,8.2493,0.8076,-0.4273,-0.1003
1764312949720,0.4134,5.2816,7.462,0.8076,-0.4273,-0.1003
1764312949730,0.4134,5.2816,7.462,0.5339,-0.4499,0.0817
1764312949740,1.2138,5.7123,7.7527,0.5339,-0.4499,0.0817
1764312949750,1.2138,5.7123,7.7527,0.2801,-0.2347,0.1121
1764312949760,1.855,5.72,7.9089,0.2801,-0.2347,0.1121
1764312949770,1.855,5.72,7.9089,0.2801,-0.2347,0.1121
1764312949780,1.5679,5.6453,7.8371,0.1816,-0.0938,-0.0111
1764312949790,1.5679,5.6453,7.8371,0.1816,-0.0938,-0.0111
1764312949800,1.5679,5.6453,7.8371,0.1941,-0.1069,-0.087
1764312949810,1.4291,5.4855,7.6235,0.1941,-0.1069,-0.087
1764312949820,1.4291,5.4855,7.6235,0.1677,-0.1269,-0.1078
1764312949830,1.3268,5.4592,7.66,0.1677,-0.1269,-0.1078
1764312949840,1.3268,5.4592,7.66,0.1347,-0.1432,-0.1022
1764312949850,1.2,5.4,7.9011,0.1347,-0.1432,-0.1022
1764312949860,1.2,5.4,7.9011,0.164,-0.1443,-0.082
1764312949870,0.8327,5.3456,7.6295,0.164,-0.1443,-0.082
1764312949880,0.8327,5.3456,7.6295,0.1613,-0.1553,-0.0111
1764312949890,0.6736,5.3773,7.395,0.1613,-0.1553,-0.0111
1764312949900,0.6736,5.3773,7.395,0.1613,-0.1553,-0.0111
1764312949910,0.6736,5.3773,7.395,0.0919,-0.179,0.0608
1764312949920,1.1773,5.4413,7.7013,0.0919,-0.179,0.0608
1764312949930,1.1773,5.4413,7.7013,0.0147,-0.0942,0.0751
1764312949940,1.9226,5.7141,7.7803,0.0147,-0.0942,0.0751
1764312949950,1.9226,5.7141,7.7803,-0.1353,-0.0014,-0.0409
1764312949960,1.608,5.6758,8.2792,-0.1353,-0.0014,-0.0409
1764312949970,1.608,5.6758,8.2792,-0.1472,0.0644,-0.0967
1764312949980,1.3131,5.738,8.6417,-0.1472,0.0644,-0.0967
1764312949990,1.3131,5.738,8.6417,-0.0006,-0.0388,-0.0979
1764312950000,1.2191,5.4257,8.8247,-0.0006,-0.0388,-0.0979
1764312950010,1.2191,5.4257,8.8247,0.1999,-0.1628,-0.0649
1764312950020,1.5709,5.7129,8.3641,0.1999,-0.1628,-0.0649
1764312950030,1.5709,5.7129,8.3641,0.35,-0.3671,-0.1144
1764312950040,1.6714,5.6602,8.3761,0.35,-0.3671,-0.1144
1764312950050,1.6714,5.6602,8.3761,0.35,-0.3671,-0.1144
1764312950060,1.6714,5.6602,8.3761,0.3807,-0.252,-0.1431
1764312950070,1.611,5.7476,8.1177,0.3807,-0.252,-0.1431
1764312950080,1.611,5.7476,8.1177,0.2615,-0.0014,-0.1281
1764312950090,1.5888,5.7894,7.6828,0.2615,-0.0014,-0.1281
1764312950100,1.5888,5.7894,7.6828,0.1619,0.0425,-0.1553
1764312950110,1.3717,5.7649,7.8473,0.1619,0.0425,-0.1553
1764312950120,1.3717,5.7649,7.8473,0.2039,-0.0658,-0.1692
1764312950130,1.2491,5.7236,7.8855,0.2039,-0.0658,-0.1692
1764312950140,1.2491,5.7236,7.8855,0.2451,-0.091,-0.155
1764312950150,1.1898,5.6626,7.8963,0.2451,-0.091,-0.155
1764312950160,1.1898,5.6626,7.8963,0.2451,-0.091,-0.155
1764312950170,1.2766,5.8684,7.6588,0.2715,-0.0394,-0.1211
1764312950180,1.2766,5.8684,7.6588,0.2715,-0.0394,-0.1211
1764312950190,1.2987,5.8307,7.5123,0.3432,-0.1793,-0.1599
1764312950200,1.2987,5.8307,7.5123,0.3432,-0.1793,-0.1599
1764312950210,1.2987,5.8307,7.5123,0.4316,-0.4241,-0.221
1764312950220,0.466,5.6578,7.7928,0.4316,-0.4241,-0.221
1764312950230,0.466,5.6578,7.7928,0.6121,-0.5822,-0.0719
1764312950240,-0.1771,5.406,7.7779,0.6121,-0.5822,-0.0719
1764312950250,-0.1771,5.406,7.7779,0.6813,-0.5899,0.297
1764312950260,0.4738,5.3922,7.9537,0.6813,-0.5899,0.297
1764312950270,0.4738,5.3922,7.9537,0.8482,-0.6124,0.4778
1764312950280,1.2443,5.8062,7.7402,0.8482,-0.6124,0.4778
1764312950290,1.2443,5.8062,7.7402,0.8633,-0.275,0.5409
1764312950300,2.3898,6.4881,7.7946,0.8633,-0.275,0.5409
1764312950310,2.3898,6.4881,7.7946,0.8633,-0.275,0.5409
1764312950320,4.5165,7.7288,6.2148,0.0898,1.5534,0.692
1764312950330,4.5165,7.7288,6.2148,0.0898,1.5534,0.692
1764312950340,4.5165,7.7288,6.2148,-2.1072,5.288,0.6138
1764312950350,6.4594,9.3404,5.1793,-2.1072,5.288,0.6138
1764312950360,6.4594,9.3404,5.1793,-5.4911,10.9354,0.1316
1764312950370,6.5145,9.2842,1.4375,-5.4911,10.9354,0.1316
1764312950380,6.5145,9.2842,1.4375,-8.6346,15.4013,-0.9914
1764312950390,1.2455,6.7352,-1.6235,-8.6346,15.4013,-0.9914
1764312950400,1.2455,6.7352,-1.6235,-8.5249,14.0636,-2.2246
1764312950410,-5.4879,2.2014,-1.742,-8.5249,14.0636,-2.2246
1764312950420,-5.4879,2.2014,-1.742,-5.3909,7.6653,-2.7382
1764312950430,-10.3448,-2.6225,2.2672,-5.3909,7.6653,-2.7382
1764312950440,-10.3448,-2.6225,2.2672,-5.3909,7.6653,-2.7382
1764312950450,-12.6927,-4.9854,7.6989,-2.0363,1.4523,-2.3732
1764312950460,-12.6927,-4.9854,7.6989,-2.0363,1.4523,-2.3732
1764312950470,-12.6927,-4.9854,7.6989,-0.2973,-0.6506,-1.2927
1764312950480,-11.2654,-4.2622,7.928,-0.2973,-0.6506,-1.2927
1764312950490,-11.2654,-4.2622,7.928,-0.255,-0.2735,-0.4548
1764312950500,-8.8582,-1.5924,6.0078,-0.255,-0.2735,-0.4548
1764312950510,-8.8582,-1.5924,6.0078,-0.6443,-0.1883,-0.3795
1764312950520,-8.2074,-0.9009,7.1557,-0.6443,-0.1883,-0.3795
1764312950530,-8.2074,-0.9009,7.1557,-0.7062,-0.3285,-0.542
1764312950540,-9.4499,-1.4118,9.0066,-0.7062,-0.3285,-0.542
1764312950550,-9.4499,-1.4118,9.0066,-0.2538,-0.5997,-0.4235
1764312950560,-10.3244,-1.8413,9.1232,-0.2538,-0.5997,-0.4235
1764312950570,-10.3244,-1.8413,9.1232,0.2686,-1.0583,-0.0605
1764312950580,-9.8124,-1.6576,8.1057,0.2686,-1.0583,-0.0605
1764312950590,-9.8124,-1.6576,8.1057,0.2686,-1.0583,-0.0605
1764312950600,-9.8124,-1.6576,8.1057,0.6735,-1.7411,0.2291
1764312950610,-8.1679,-1.2933,6.7908,0.6735,-1.7411,0.2291
1764312950620,-8.1679,-1.2933,6.7908,1.0737,-3.0728,0.2233
1764312950630,-6.3488,-0.8674,7.8981,1.0737,-3.0728,0.2233
1764312950640,-6.3488,-0.8674,7.8981,2.1432,-5.2611,-0.0712
1764312950650,-6.0491,-1.2951,11.1392,2.1432,-5.2611,-0.0712
1764312950660,-6.0491,-1.2951,11.1392,3.9575,-7.5289,-0.1779
1764312950670,-5.3204,-1.1115,12.2094,3.9575,-7.5289,-0.1779
1764312950680,-5.3204,-1.1115,12.2094,5.8089,-9.6159,-0.2266
1764312950690,-3.143,0.3081,11.8528,5.8089,-9.6159,-0.2266
1764312950700,-3.143,0.3081,11.8528,7.0957,-10.8357,-0.4149
1764312950710,-0.5982,2.3575,11.2176,7.0957,-10.8357,-0.4149
1764312950720,-0.5982,2.3575,11.2176,7.0957,-10.8357,-0.4149
1764312950730,1.5278,4.2479,10.142,7.1079,-9.7693,-0.515
1764312950740,1.5278,4.2479,10.142,7.1079,-9.7693,-0.515
1764312950750,1.5278,4.2479,10.142,5.0592,-5.2678,-0.2288
1764312950760,3.0233,5.534,5.918,5.0592,-5.2678,-0.2288
1764312950770,3.0233,5.534,5.918,1.6354,-0.0385,0.0889
1764312950780,3.481,6.8417,1.3621,1.6354,-0.0385,0.0889
1764312950790,3.481,6.8417,1.3621,-0.9384,2.016,-0.0715
1764312950800,2.2792,6.4355,2.5525,-0.9384,2.016,-0.0715
1764312950810,2.2792,6.4355,2.5525,-1.2019,0.868,-0.4629
1764312950820,0.4965,4.7821,7.7432,-1.2019,0.868,-0.4629
1764312950830,0.4965,4.7821,7.7432,0.0634,-0.5985,-0.438
1764312950840,0.341,3.9846,10.0343,0.0634,-0.5985,-0.438
1764312950850,0.341,3.9846,10.0343,0.0634,-0.5985,-0.438
1764312950860,0.341,3.9846,10.0343,0.9423,-0.5776,-0.1663
1764312950870,0.4989,3.9015,7.809,0.9423,-0.5776,-0.1663
1764312950880,0.4989,3.9015,7.809,0.7338,0.0845,0.1849
1764312950890,1.386,4.9472,5.4843,0.7338,0.0845,0.1849
1764312950900,1.386,4.9472,5.4843,0.0402,0.3708,0.2778
1764312950910,2.5143,5.6471,5.6949,0.0402,0.3708,0.2778
1764312950920,2.5143,5.6471,5.6949,-0.4476,0.319,0.0718
1764312950930,3.1837,5.9151,8.4114,-0.4476,0.319,0.0718
1764312950940,3.1837,5.9151,8.4114,-0.4068,0.5512,-0.2039
1764312950950,1.3609,4.8239,10.2796,-0.4068,0.5512,-0.2039
1764312950960,1.3609,4.8239,10.2796,0.046,1.0985,0.0205
1764312950970,0.3332,5.2032,7.5051,0.046,1.0985,0.0205
1764312950980,0.3332,5.2032,7.5051,0.046,1.0985,0.0205
1764312950990,1.3543,6.2614,6.9787,0.0716,0.6257,0.4041
1764312951000,1.3543,6.2614,6.9787,0.0716,0.6257,0.4041
1764312951010,1.3543,6.2614,6.9787,0.0162,0.0014,0.4698
1764312951020,3.0664,6.4415,8.3498,0.0162,0.0014,0.4698
1764312951030,3.0664,6.4415,8.3498,0.1069,-0.1939,0.2172
1764312951040,3.8106,6.1603,9.6586,0.1069,-0.1939,0.2172
1764312951050,3.8106,6.1603,9.6586,0.2862,0.1903,-0.0756
1764312951060,2.994,6.0455,8.461,0.2862,0.1903,-0.0756
1764312951070,2.994,6.0455,8.461,0.281,0.3813,-0.2312
1764312951080,1.9274,5.8176,7.48,0.281,0.3813,-0.2312
1764312951090,1.9274,5.8176,7.48,0.1955,0.3598,-0.219
1764312951100,0.9703,5.4126,6.7508,0.1955,0.3598,-0.219
1764312951110,0.9703,5.4126,6.7508,0.1759,-0.0392,-0.1101
1764312951120,1.1067,5.5645,7.5326,0.1759,-0.0392,-0.1101
1764312951130,1.1067,5.5645,7.5326,0.1759,-0.0392,-0.1101
1764312951140,1.87,5.4664,7.52,0.1733,-0.0315,0.018
1764312951150,1.87,5.4664,7.52,0.1733,-0.0315,0.018
1764312951160,1.87,5.4664,7.52,0.0263,0.2587,-0.005
1764312951170,1.7773,5.7057,7.2981,0.0263,0.2587,-0.005
1764312951180,1.7773,5.7057,7.2981,-0.0953,0.3464,-0.0556
1764312951190,1.2891,5.6776,7.0672,-0.0953,0.3464,-0.0556
1764312951200,1.2891,5.6776,7.0672,-0.1141,0.1549,-0.0629
1764312951210,1.0911,5.6106,7.5852,-0.1141,0.1549,-0.0629
1764312951220,1.0911,5.6106,7.5852,-0.0437,0.0162,-0.0174
1764312951230,1.3561,5.6818,7.9938,-0.0437,0.0162,-0.0174
1764312951240,1.3561,5.6818,7.9938,0.026,-0.0307,-0.0194
1764312951250,1.614,5.6441,8.2373,0.026,-0.0307,-0.0194
1764312951260,1.614,5.6441,8.2373,0.026,-0.0307,-0.0194
1764312951270,1.614,5.6441,8.2373,0.0956,-0.0035,-0.0541
1764312951280,1.3322,5.6578,7.751,0.0956,-0.0035,-0.0541
1764312951290,1.3322,5.6578,7.751,0.0751,-0.0458,-0.0521
1764312951300,1.4088,5.7667,8.0411,0.0751,-0.0458,-0.0521
1764312951310,1.4088,5.7667,8.0411,0.0226,0.0148,-0.0467
1764312951320,1.3992,5.6662,7.9508,0.0226,0.0148,-0.0467
1764312951330,1.3992,5.6662,7.9508,0.0137,0.0822,-0.0435
1764312951340,1.4501,5.7727,7.9525,0.0137,0.0822,-0.0435
1764312951350,1.4501,5.7727,7.9525,0.0145,0.0392,-0.038
1764312951360,1.3974,5.7171,7.9807,0.0145,0.0392,-0.038
1764312951370,1.3974,5.7171,7.9807,0.0793,0.0145,-0.0519
1764312951380,1.4154,5.7745,8.3833,0.0793,0.0145,-0.0519
1764312951390,1.4154,5.7745,8.3833,0.0793,0.0145,-0.0519
1764312951400,1.7103,5.6518,8.7033,0.1399,0.0182,-0.0577
1764312951410,1.7103,5.6518,8.7033,0.1399,0.0182,-0.0577
1764312951420,1.7103,5.6518,8.7033,0.2388,0.1313,-0.0788
1764312951430,1.5565,5.8588,8.0207,0.2388,0.1313,-0.0788
1764312951440,1.5565,5.8588,8.0207,0.2334,0.1365,-0.1174
1764312951450,1.1617,5.985,7.8772,0.2334,0.1365,-0.1174
1764312951460,1.1617,5.985,7.8772,0.2014,0.1077,-0.087
1764312951470,1.1916,6.0012,7.9137,0.2014,0.1077,-0.087
1764312951480,1.1916,6.0012,7.9137,0.2107,0.0625,-0.0951
1764312951490,1.6283,5.9426,8.2648,0.2107,0.0625,-0.0951
1764312951500,1.6283,5.9426,8.2648,0.4067,-0.2039,-0.1582
1764312951510,1.6475,5.7416,8.8187,0.4067,-0.2039,-0.1582
1764312951520,1.6475,5.7416,8.8187,0.4067,-0.2039,-0.1582
1764312951530,1.6475,5.7416,8.8187,0.7692,-0.5162,-0.221
1764312951540,1.5362,5.7781,8.9222,0.7692,-0.5162,-0.221
1764312951550,1.5362,5.7781,8.9222,1.2367,-0.945,-0.2564
1764312951560,1.4309,5.9258,8.4431,1.2367,-0.945,-0.2564
1764312951570,1.4309,5.9258,8.4431,1.7611,-1.4963,-0.3448
1764312951580,0.0114,5.7559,7.2712,1.7611,-1.4963,-0.3448
1764312951590,0.0114,5.7559,7.2712,2.2781,-2.1298,-0.2592
1764312951600,-0.5886,5.3282,6.3153,2.2781,-2.1298,-0.2592
1764312951610,-0.5886,5.3282,6.3153,2.7245,-3.0332,0.122
1764312951620,1.2359,6.0814,6.3661,2.7245,-3.0332,0.122
1764312951630,1.2359,6.0814,6.3661,3.4734,-4.0148,0.0312
1764312951640,2.272,6.7795,6.1699,3.4734,-4.0148,0.0312
1764312951650,2.272,6.7795,6.1699,3.9883,-4.2644,-0.0837
1764312951660,2.455,7.2628,4.7635,3.9883,-4.2644,-0.0837
1764312951670,2.455,7.2628,4.7635,3.9883,-4.2644,-0.0837
1764312951680,2.455,7.2628,4.7635,3.7249,-3.4077,-0.0006
1764312951690,2.9372,8.4341,1.8377,3.7249,-3.4077,-0.0006
1764312951700,2.9372,8.4341,1.8377,2.3521,-1.4743,0.2078
1764312951710,4.0361,10.1091,-0.7771,2.3521,-1.4743,0.2078
1764312951720,4.0361,10.1091,-0.7771,-0.3054,2.1929,0.4896
1764312951730,6.2034,11.6997,-5.0901,-0.3054,2.1929,0.4896
1764312951740,6.2034,11.6997,-5.0901,-4.435,6.909,0.321
1764312951750,8.0076,11.9605,-8.4407,-4.435,6.909,0.321
1764312951760,8.0076,11.9605,-8.4407,-9.4397,12.2946,-0.502
1764312951770,9.5127,10.9723,-10.8885,-9.4397,12.2946,-0.502
1764312951780,9.5127,10.9723,-10.8885,-13.977,17.4694,-2.5997
1764312951790,2.1858,2.1571,-13.1892,-13.977,17.4694,-2.5997
1764312951800,2.1858,2.1571,-13.1892,-13.977,17.4694,-2.5997
1764312951810,-13.1737,-6.9547,-5.8499,-15.2429,17.765,-4.5598
1764312951820,-13.1737,-6.9547,-5.8499,-15.2429,17.765,-4.5598
1764312951830,-13.1737,-6.9547,-5.8499,-11.0466,10.8957,-3.9317
1764312951840,-16.4351,-11.4269,7.1737,-11.0466,10.8957,-3.9317
1764312951850,-16.4351,-11.4269,7.1737,-3.4453,0.5467,-2.7264
1764312951860,-14.5472,-11.8158,23.2068,-3.4453,0.5467,-2.7264
1764312951870,-14.5472,-11.8158,23.2068,3.2729,-3.289,-1.2281
1764312951880,-9.8489,-7.7049,12.3553,3.2729,-3.289,-1.2281
1764312951890,-9.8489,-7.7049,12.3553,3.5846,-1.9904,-0.5634
1764312951900,-7.6875,-4.2383,0.8004,3.5846,-1.9904,-0.5634
1764312951910,-7.6875,-4.2383,0.8004,-0.1326,-0.3063,-0.4242
1764312951920,-8.9551,-2.4443,5.1817,-0.1326,-0.3063,-0.4242
1764312951930,-8.9551,-2.4443,5.1817,-0.1326,-0.3063,-0.4242
1764312951940,-9.5874,-2.074,11.473,-1.9342,0.5,-0.2442
1764312951950,-9.5874,-2.074,11.473,-1.9342,0.5,-0.2442
1764312951960,-9.5874,-2.074,11.473,-0.6074,-0.3737,-0.1217
1764312951970,-8.482,-1.9095,12.8859,-0.6074,-0.3737,-0.1217
1764312951980,-8.482,-1.9095,12.8859,1.301,-1.6637,-0.0866
1764312951990,-7.5194,-1.9561,10.3418,1.301,-1.6637,-0.0866
1764312952000,-7.5194,-1.9561,10.3418,2.0024,-2.3871,-0.0333
1764312952010,-6.6772,-1.6164,8.9348,2.0024,-2.3871,-0.0333
1764312952020,-6.6772,-1.6164,8.9348,1.7933,-2.4071,0.0864
1764312952030,-6.2901,-1.544,9.1454,1.7933,-2.4071,0.0864
1764312952040,-6.2901,-1.544,9.1454,1.5649,-2.186,0.2917
1764312952050,-5.2899,-1.1976,10.0798,1.5649,-2.186,0.2917
1764312952060,-5.2899,-1.1976,10.0798,1.5649,-2.186,0.2917
1764312952070,-5.2899,-1.1976,10.0798,1.8031,-2.1599,0.4444
1764312952080,-3.3356,-0.3099,10.6193,1.8031,-2.1599,0.4444
1764312952090,-3.3356,-0.3099,10.6193,2.2776,-2.2397,0.2888
1764312952100,-3.0676,0.2058,9.6144,2.2776,-2.2397,0.2888
1764312952110,-3.0676,0.2058,9.6144,2.9166,-3.0716,0.0266
1764312952120,-3.6096,0.4834,9.1119,2.9166,-3.0716,0.0266
1764312952130,-3.6096,0.4834,9.1119,3.6725,-4.3793,-0.0887
1764312952140,-3.6449,0.5168,9.3787,3.6725,-4.3793,-0.0887
1764312952150,-3.6449,0.5168,9.3787,4.517,-5.8475,-0.0515
1764312952160,-2.1787,1.4357,9.9811,4.517,-5.8475,-0.0515
1764312952170,-2.1787,1.4357,9.9811,5.452,-7.0625,-0.1924
1764312952180,-0.3715,2.8869,10.3047,5.452,-7.0625,-0.1924
1764312952190,-0.3715,2.8869,10.3047,6.0132,-7.1729,-0.4397
1764312952200,0.7143,3.9912,8.9653,6.0132,-7.1729,-0.4397
1764312952210,0.7143,3.9912,8.9653,6.0132,-7.1729,-0.4397
1764312952220,0.7143,3.9912,8.9653,5.4842,-5.8319,-0.4548
1764312952230,1.4453,5.2152,5.6309,5.4842,-5.8319,-0.4548
1764312952240,1.4453,5.2152,5.6309,4.3306,-4.5464,-0.4502
1764312952250,1.4273,6.2961,4.8096,4.3306,-4.5464,-0.4502
1764312952260,1.4273,6.2961,4.8096,3.7098,-3.9859,-0.4194
1764312952270,1.9352,6.8548,4.3579,3.7098,-3.9859,-0.4194
1764312952280,1.9352,6.8548,4.3579,3.2452,-3.2825,-0.3742
1764312952290,1.9831,6.8512,3.597,3.2452,-3.2825,-0.3742
1764312952300,1.9831,6.8512,3.597,2.2048,-1.6234,-0.0967
1764312952310,2.2905,6.9045,1.7599,2.2048,-1.6234,-0.0967
1764312952320,2.2905,6.9045,1.7599,2.2048,-1.6234,-0.0967
1764312952330,2.2905,6.9045,1.7599,0.9248,-0.2613,0.2359
1764312952340,3.1573,7.4572,1.5123,0.9248,-0.2613,0.2359
1764312952350,4.3819,7.8018,2.08,0.037,0.4339,0.3939
1764312952360,4.3819,7.8018,2.08,0.037,0.4339,0.3939
1764312952370,4.3819,7.8018,2.08,-0.3496,0.5301,0.3334
1764312952380,4.328,7.8084,3.9703,-0.3496,0.5301,0.3334
1764312952390,4.328,7.8084,3.9703,-0.2639,0.5641,0.3268
1764312952400,4.5302,7.8215,4.9579,-0.2639,0.5641,0.3268
1764312952410,4.5302,7.8215,4.9579,-0.281,1.0281,0.3613
1764312952420,5.6453,8.4239,4.5081,-0.281,1.0281,0.3613
1764312952430,5.6453,8.4239,4.5081,-0.4085,1.2891,0.1614
1764312952440,6.7304,8.7739,4.9167,-0.4085,1.2891,0.1614
1764312952450,6.7304,8.7739,4.9167,-0.4151,1.4781,-0.25
1764312952460,3.9829,7.2467,5.8301,-0.4151,1.4781,-0.25
1764312952470,3.9829,7.2467,5.8301,-0.4151,1.4781,-0.25
1764312952480,3.9829,7.2467,5.8301,-0.1052,1.4945,-0.0765
1764312952490,1.7773,7.2664,4.148,-0.1052,1.4945,-0.0765
1764312952500,1.7773,7.2664,4.148,-0.1338,1.2578,0.4843
1764312952510,1.7486,7.8832,3.1071,-0.1338,1.2578,0.4843
1764312952520,1.7486,7.8832,3.1071,-0.433,0.7776,0.8361
1764312952530,3.9613,7.9872,4.5129,-0.433,0.7776,0.8361
1764312952540,3.9613,7.9872,4.5129,-0.4154,0.635,0.6408
1764312952550,4.9902,7.684,4.9484,-0.4154,0.635,0.6408
1764312952560,4.9902,7.684,4.9484,-0.2631,0.44,0.2082
1764312952570,4.2508,7.3382,5.0172,-0.2631,0.44,0.2082
1764312952580,4.2508,7.3382,5.0172,-0.2631,0.44,0.2082
1764312952590,3.5444,6.9739,5.0841,-0.161,0.2665,0.0144
1764312952600,3.5444,6.9739,5.0841,-0.161,0.2665,0.0144
1764312952610,3.7723,7.2826,5.3521,-0.171,0.2384,0.0502
1764312952620,3.7723,7.2826,5.3521,-0.171,0.2384,0.0502
1764312952630,3.7723,7.2826,5.3521,-0.2437,0.42,0.0683
1764312952640,3.8554,7.386,5.2008,-0.2437,0.42,0.0683
1764312952650,3.8554,7.386,5.2008,-0.3647,0.5716,0.0344
1764312952660,3.8016,7.4142,5.4365,-0.3647,0.5716,0.0344
1764312952670,3.8016,7.4142,5.4365,-0.35,0.5397,-0.0052
1764312952680,3.4917,7.1725,5.1721,-0.35,0.5397,-0.0052
1764312952690,3.4917,7.1725,5.1721,-0.2908,0.2853,-0.0385
1764312952700,3.3488,7.1964,5.5214,-0.2908,0.2853,-0.0385
1764312952710,3.3488,7.1964,5.5214,-0.2001,0.049,-0.0495
1764312952720,3.3224,7.0062,5.8253,-0.2001,0.049,-0.0495
1764312952730,3.3224,7.0062,5.8253,-0.2001,0.049,-0.0495
1764312952740,2.9414,6.8518,5.6979,-0.1153,-0.0556,-0.0606
1764312952750,2.9414,6.8518,5.6979,-0.1153,-0.0556,-0.0606
1764312952760,2.9414,6.8518,5.6979,-0.1442,-0.0638,0.0053
1764312952770,2.8714,6.9356,5.9904,-0.1442,-0.0638,0.0053
1764312952780,2.8714,6.9356,5.9904,-0.3054,0.1912,0.1208
1764312952790,3.4648,6.9583,6.7011,-0.3054,0.1912,0.1208
1764312952800,3.4648,6.9583,6.7011,-0.5365,0.7627,0.2181
1764312952810,4.0295,7.2197,6.6203,-0.5365,0.7627,0.2181
1764312952820,4.0295,7.2197,6.6203,-0.6823,1.1095,0.1345
1764312952830,3.7998,7.2395,6.6365,-0.6823,1.1095,0.1345
1764312952840,3.7998,7.2395,6.6365,-0.6188,1.0264,0.0124
1764312952850,3.3386,6.9823,6.743,-0.6188,1.0264,0.0124
1764312952860,3.3386,6.9823,6.743,-0.3488,0.7083,-0.0822
1764312952870,2.7793,6.7095,6.4845,-0.3488,0.7083,-0.0822
1764312952880,2.7793,6.7095,6.4845,-0.3488,0.7083,-0.0822
1764312952890,2.6435,6.5486,6.5103,-0.1356,0.3224,-0.0861
1764312952900,2.6435,6.5486,6.5103,-0.1356,0.3224,-0.0861
1764312952910,2.6435,6.5486,6.5103,-0.0041,0.0596,-0.0557
1764312952920,2.8205,6.5677,6.5641,-0.0041,0.0596,-0.0557
1764312952930,2.8205,6.5677,6.5641,0.0629,-0.0515,-0.0602
1764312952940,2.8457,6.6347,6.5198,0.0629,-0.0515,-0.0602
1764312952950,2.8457,6.6347,6.5198,0.0321,-0.0231,-0.0673
1764312952960,2.817,6.6299,6.545,0.0321,-0.0231,-0.0673
1764312952970,2.817,6.6299,6.545,-0.0331,0.0861,-0.0619
1764312952980,2.7948,6.7011,6.469,-0.0331,0.0861,-0.0619
1764312952990,2.7948,6.7011,6.469,-0.0444,0.0993,-0.0719
1764312953000,2.7547,6.7274,6.5067,-0.0444,0.0993,-0.0719
1764312953010,2.7547,6.7274,6.5067,-0.0444,0.0993,-0.0719
1764312953020,2.7374,6.7059,6.6054,-0.0315,0.0605,-0.0722
1764312953030,2.7374,6.7059,6.6054,-0.0315,0.0605,-0.0722
1764312953040,2.7374,6.7059,6.6054,-0.018,0.0475,-0.0658
1764312953050,2.6118,6.5551,6.7735,-0.018,0.0475,-0.0658
1764312953060,2.6118,6.5551,6.7735,0.0211,0.0528,-0.0258
1764312953070,2.6752,6.6012,6.7992,0.0211,0.0528,-0.0258
1764312953080,2.6752,6.6012,6.7992,0.0483,0.0634,-0.0027
1764312953090,2.6261,6.6233,6.7316,0.0483,0.0634,-0.0027
1764312953100,2.6261,6.6233,6.7316,0.0451,0.1232,0.016
1764312953110,2.7625,6.8423,6.6538,0.0451,0.1232,0.016
1764312953120,2.7625,6.8423,6.6538,-0.0098,0.2538,-0.0079
1764312953130,3.1382,6.8847,6.6347,-0.0098,0.2538,-0.0079
1764312953140,3.1382,6.8847,6.6347,-0.1063,0.5037,-0.0788
1764312953150,2.9001,6.7083,6.4636,-0.1063,0.5037,-0.0788
1764312953160,2.9001,6.7083,6.4636,-0.1063,0.5037,-0.0788
1764312953170,2.9001,6.7083,6.4636,-0.235,0.7504,-0.0857
1764312953180,2.2235,6.6072,6.2004,-0.235,0.7504,-0.0857
1764312953190,2.2235,6.6072,6.2004,-0.325,0.7585,-0.0079
1764312953200,2.0195,6.6999,6.0168,-0.325,0.7585,-0.0079
1764312953210,2.0195,6.6999,6.0168,-0.31,0.4297,0.0092
1764312953220,2.4323,6.6263,6.6873,-0.31,0.4297,0.0092
1764312953230,2.4323,6.6263,6.6873,-0.0941,0.006,-0.0605
1764312953240,2.6578,6.4762,7.453,-0.0941,0.006,-0.0605
1764312953250,2.6578,6.4762,7.453,0.1665,-0.1793,-0.1513
1764312953260,2.5472,6.6933,7.3591,0.1665,-0.1793,-0.1513
1764312953270,2.5472,6.6933,7.3591,0.1665,-0.1793,-0.1513
1764312953280,2.5472,6.6933,7.3591,0.2569,-0.2088,-0.1741
1764312953290,2.4933,6.7543,7.1815,0.2569,-0.2088,-0.1741
1764312953300,2.4712,6.9248,7.0983,0.2182,-0.1407,-0.1738
1764312953310,2.4712,6.9248,7.0983,0.2182,-0.1407,-0.1738
1764312953320,2.4712,6.9248,7.0983,0.2161,-0.2062,-0.2109
1764312953330,2.1715,6.6233,7.0672,0.2161,-0.2062,-0.2109
1764312953340,2.1715,6.6233,7.0672,0.328,-0.35,-0.1958
1764312953350,1.2526,6.4971,7.075,0.328,-0.35,-0.1958
1764312953360,1.2526,6.4971,7.075,0.4392,-0.392,0.0408
1764312953370,1.9513,6.5312,6.6168,0.4392,-0.392,0.0408
1764312953380,1.9513,6.5312,6.6168,0.4296,-0.3654,0.102
1764312953390,2.662,6.6867,6.804,0.4296,-0.3654,0.102
1764312953400,2.662,6.6867,6.804,0.465,-0.3461,0.0542
1764312953410,2.2618,6.6377,6.871,0.465,-0.3461,0.0542
1764312953420,2.2618,6.6377,6.871,0.465,-0.3461,0.0542
1764312953430,2.2618,6.6377,6.871,0.5391,-0.3439,0.0999
1764312953440,2.4347,7.0301,6.1699,0.5391,-0.3439,0.0999
1764312953450,2.4347,7.0301,6.1699,0.4895,-0.3638,0.104
1764312953460,2.5232,7.1067,5.9521,0.4895,-0.3638,0.104
1764312953470,2.5232,7.1067,5.9521,0.4824,-0.511,0.0715
1764312953480,2.4036,7.0301,6.5767,0.4824,-0.511,0.0715
1764312953490,2.4036,7.0301,6.5767,0.6405,-0.5252,0.0976
1764312953500,2.3246,6.8692,6.804,0.6405,-0.5252,0.0976
1764312953510,2.3246,6.8692,6.804,0.4788,0.263,0.2937
1764312953520,3.2943,7.4596,6.3876,0.4788,0.263,0.2937
1764312953530,3.2943,7.4596,6.3876,-0.7953,3.0113,0.5863
1764312953540,5.9216,9.2842,3.5731,-0.7953,3.0113,0.5863
1764312953550,5.9216,9.2842,3.5731,-0.7953,3.0113,0.5863
1764312953560,7.919,11.4054,0.1992,-3.7831,8.0106,0.425
1764312953570,7.919,11.4054,0.1992,-3.7831,8.0106,0.425
1764312953580,7.919,11.4054,0.1992,-7.7227,13.8004,-0.3966
1764312953590,6.2387,9.4546,-4.3902,-7.7227,13.8004,-0.3966
1764312953600,6.2387,9.4546,-4.3902,-10.2161,16.2924,-1.7648
1764312953610,-0.2489,5.1141,-4.3388,-10.2161,16.2924,-1.7648
1764312953620,-0.2489,5.1141,-4.3388,-8.9851,13.2295,-2.8314
1764312953630,-7.6265,-0.8441,-1.5667,-8.9851,13.2295,-2.8314
1764312953640,-7.6265,-0.8441,-1.5667,-5.0373,5.7508,-2.9296
1764312953650,-11.2875,-4.7821,5.0931,-5.0373,5.7508,-2.9296
1764312953660,-11.2875,-4.7821,5.0931,-1.2524,-0.4717,-2.4697
1764312953670,-12.7011,-7.4477,10.7659,-1.2524,-0.4717,-2.4697
1764312953680,-12.7011,-7.4477,10.7659,-1.2524,-0.4717,-2.4697
1764312953690,-10.1516,-5.2451,9.7902,0.3485,-1.7933,-1.261
1764312953700,-10.1516,-5.2451,9.7902,0.3485,-1.7933,-1.261
1764312953710,-10.1516,-5.2451,9.7902,-0.1353,-0.5379,-0.6251
1764312953720,-9.5222,-2.8175,7.6869,-0.1353,-0.5379,-0.6251
1764312953730,-9.5222,-2.8175,7.6869,-0.6997,-0.1939,-0.5108
1764312953740,-10.4154,-2.1027,8.948,-0.6997,-0.1939,-0.5108
1764312953750,-10.4154,-2.1027,8.948,-0.1133,-1.2184,-0.3595
1764312953760,-10.0056,-1.5182,9.5318,-0.1133,-1.2184,-0.3595
1764312953770,-10.0056,-1.5182,9.5318,0.9728,-2.888,-0.2482
1764312953780,-9.1011,-1.5619,9.1179,0.9728,-2.888,-0.2482
1764312953790,-9.1011,-1.5619,9.1179,0.9728,-2.888,-0.2482
1764312953800,-9.1011,-1.5619,9.1179,2.1571,-5.1792,-0.155
1764312953810,-7.1892,-1.2473,10.468,3.7185,-7.721,-0.1791
1764312953820,-5.2289,-0.8435,11.6518,3.7185,-7.721,-0.1791
1764312953830,-5.2289,-0.8435,11.6518,3.7185,-7.721,-0.1791
1764312953840,-5.2289,-0.8435,11.6518,5.1759,-9.5846,-0.1767
1764312953850,-1.8299,0.2285,11.592,5.1759,-9.5846,-0.1767
1764312953860,-1.8299,0.2285,11.592,5.9953,-10.3467,-0.4255
1764312953870,1.5811,2.6961,12.3105,5.9953,-10.3467,-0.4255
1764312953880,1.5811,2.6961,12.3105,6.5375,-10.0215,-1.0171
1764312953890,2.7577,3.8315,12.2961,6.5375,-10.0215,-1.0171
1764312953900,2.7577,3.8315,12.2961,5.9962,-7.0891,-1.0571
1764312953910,2.9707,4.3998,9.2124,5.9962,-7.0891,-1.0571
1764312953920,2.9707,4.3998,9.2124,3.4485,-1.7579,-0.5235
1764312953930,3.052,5.2337,2.3228,3.4485,-1.7579,-0.5235
1764312953940,3.052,5.2337,2.3228,0.2674,1.8243,-0.1203
1764312953950,2.5065,5.6076,0.2518,0.2674,1.8243,-0.1203
1764312953960,2.5065,5.6076,0.2518,0.2674,1.8243,-0.1203
1764312953970,1.7946,5.5053,3.9972,-1.2486,1.7656,-0.0735
1764312953980,1.7946,5.5053,3.9972,-1.2486,1.7656,-0.0735
1764312953990,1.7946,5.5053,3.9972,-0.5612,-0.2355,-0.2109
1764312954000,2.0136,4.9322,9.3482,-0.5612,-0.2355,-0.2109
1764312954010,2.0136,4.9322,9.3482,0.7607,-0.9771,-0.2408
1764312954020,1.8604,4.4495,8.79,0.7607,-0.9771,-0.2408
1764312954030,1.8604,4.4495,8.79,1.0452,-0.4485,-0.0162
1764312954040,2.991,5.2277,6.1878,1.0452,-0.4485,-0.0162
1764312954050,2.991,5.2277,6.1878,0.4071,0.2372,0.0512
1764312954060,4.1169,6.1908,5.6357,0.4071,0.2372,0.0512
1764312954070,4.1169,6.1908,5.6357,-0.2567,0.6245,-0.1284
1764312954080,2.7242,6.003,7.3113,-0.2567,0.6245,-0.1284
1764312954090,2.7242,6.003,7.3113,-0.2567,0.6245,-0.1284
1764312954100,1.3334,5.2241,7.8437,-0.3264,0.7622,-0.0667
1764312954110,1.3334,5.2241,7.8437,-0.3264,0.7622,-0.0667
1764312954120,1.3334,5.2241,7.8437,-0.1016,0.6246,0.3004
1764312954130,1.7001,5.8941,7.6301,-0.1016,0.6246,0.3004
1764312954140,1.7001,5.8941,7.6301,0.0736,0.2159,0.5015
1764312954150,3.5605,6.1286,7.8066,0.0736,0.2159,0.5015
1764312954160,3.5605,6.1286,7.8066,0.2443,0.0499,0.3451
1764312954170,4.7169,6.4241,7.4189,0.2443,0.0499,0.3451
1764312954180,4.7169,6.4241,7.4189,0.2871,-0.018,-0.0463
1764312954190,4.2179,6.3858,7.1755,0.2871,-0.018,-0.0463
1764312954200,4.2179,6.3858,7.1755,0.2117,0.0287,-0.3117
1764312954210,3.192,6.1657,7.0875,0.2117,0.0287,-0.3117
1764312954220,3.192,6.1657,7.0875,0.2117,0.0287,-0.3117
1764312954230,3.192,6.1657,7.0875,0.133,0.1362,-0.3215
1764312954240,2.6465,5.9809,6.7035,0.133,0.1362,-0.3215
1764312954250,2.6465,5.9809,6.7035,0.0545,0.1451,-0.2544
1764312954260,2.5807,5.9121,6.746,0.0545,0.1451,-0.2544
1764312954270,2.5807,5.9121,6.746,-0.0501,0.1391,-0.1993
1764312954280,2.6034,5.6913,7.0552,-0.0501,0.1391,-0.1993
1764312954290,2.6034,5.6913,7.0552,-0.0623,0.2123,-0.177
1764312954300,2.1649,5.5244,6.9661,-0.0623,0.2123,-0.177
1764312954310,2.1649,5.5244,6.9661,-0.1052,0.1709,-0.1
1764312954320,1.9753,5.4927,7.2562,-0.1052,0.1709,-0.1
1764312954330,1.9753,5.4927,7.2562,-0.0922,0.1903,-0.0093
1764312954340,1.8503,5.5131,7.1533,-0.0922,0.1903,-0.0093
1764312954350,1.8503,5.5131,7.1533,-0.1881,0.2445,0.091
1764312954360,1.8168,5.5717,7.2132,-0.1881,0.2445,0.091
1764312954370,1.8168,5.5717,7.2132,-0.1881,0.2445,0.091
1764312954380,1.8168,5.5717,7.2132,-0.2677,0.2457,0.133
1764312954390,1.8341,5.8271,6.7238,-0.2677,0.2457,0.133
1764312954400,1.8341,5.8271,6.7238,-0.3433,-0.1187,0.104
1764312954410,2.7553,5.805,8.5388,-0.3433,-0.1187,0.104
1764312954420,2.7553,5.805,8.5388,-0.1605,-0.1277,-0.0026
1764312954430,2.7984,5.4347,9.0437,-0.1605,-0.1277,-0.0026
1764312954440,2.7984,5.4347,9.0437,0.017,0.1643,-0.0667
1764312954450,1.9573,5.5286,8.1039,0.017,0.1643,-0.0667
1764312954460,1.9573,5.5286,8.1039,0.0594,0.1591,0.0348
1764312954470,1.8389,5.6106,7.6445,0.0594,0.1591,0.0348
1764312954480,1.8389,5.6106,7.6445,0.0594,0.1591,0.0348
1764312954490,2.3031,5.7745,7.6199,0.0275,0.1066,0.1471
1764312954500,2.3031,5.7745,7.6199,0.0275,0.1066,0.1471
1764312954510,2.6022,5.72,7.4399,-0.0458,0.1408,0.191
1764312954520,2.6022,5.72,7.4399,-0.0458,0.1408,0.191
1764312954530,2.6022,5.72,7.4399,-0.146,0.2039,0.1973
1764312954540,3.0227,5.8941,7.8915,-0.146,0.2039,0.1973
1764312954550,3.0227,5.8941,7.8915,-0.1358,0.2682,0.1145
1764312954560,2.9958,5.8014,8.0865,-0.1358,0.2682,0.1145
1764312954570,2.9958,5.8014,8.0865,-0.0538,0.3679,0.0182
1764312954580,2.5783,5.7637,7.4674,-0.0538,0.3679,0.0182
1764312954590,2.5783,5.7637,7.4674,-0.0066,0.1452,-0.0333
1764312954600,2.4455,5.8307,7.6409,-0.0066,0.1452,-0.0333
1764312954610,2.4455,5.8307,7.6409,0.1118,-0.1203,-0.0919
1764312954620,2.3001,5.6776,8.1655,0.1118,-0.1203,-0.0919
1764312954630,2.3001,5.6776,8.1655,0.1118,-0.1203,-0.0919
1764312954640,2.3001,5.6776,8.1655,0.2141,-0.1086,-0.0866
1764312954650,2.2648,5.543,8.4628,0.2141,-0.1086,-0.0866
1764312954660,2.2648,5.543,8.4628,0.2405,0.1023,-0.0527
1764312954670,2.3031,5.5837,8.1583,0.2405,0.1023,-0.0527
1764312954680,2.3031,5.5837,8.1583,0.2304,0.1607,-0.057
1764312954690,2.2606,5.7224,7.8233,0.2304,0.1607,-0.057
1764312954700,2.2606,5.7224,7.8233,0.2886,-0.0458,-0.1086
1764312954710,2.1165,5.8032,7.7019,0.2886,-0.0458,-0.1086
1764312954720,2.1165,5.8032,7.7019,0.4502,-0.3896,-0.1535
1764312954730,2.1458,5.8798,7.8532,0.4502,-0.3896,-0.1535
1764312954740,2.1458,5.8798,7.8532,0.4502,-0.3896,-0.1535
1764312954750,2.1458,5.8798,7.8532,0.5901,-0.5553,-0.1746
1764312954760,2.4275,5.875,7.8377,0.5901,-0.5553,-0.1746
1764312954770,2.3994,5.9928,7.0905,0.6408,-0.4551,-0.186
1764312954780,2.3994,5.9928,7.0905,0.6408,-0.4551,-0.186
1764312954790,2.3994,5.9928,7.0905,0.6768,-0.5838,-0.2315
1764312954800,1.1713,5.7984,6.3936,0.6768,-0.5838,-0.2315
1764312954810,1.1713,5.7984,6.3936,0.7501,-0.8465,-0.0289
1764312954820,1.4249,5.6824,6.2662,0.7501,-0.8465,-0.0289
1764312954830,1.4249,5.6824,6.2662,0.6723,-1.0916,0.2931
1764312954840,2.9492,6.0652,7.9214,0.6723,-1.0916,0.2931
1764312954850,2.9492,6.0652,7.9214,0.8082,-0.7898,0.2692
1764312954860,3.2399,6.4989,6.7705,0.8082,-0.7898,0.2692
1764312954870,3.2399,6.4989,6.7705,0.9456,-0.9416,0.1268
1764312954880,3.1747,6.7125,5.4592,0.9456,-0.9416,0.1268
1764312954890,3.1747,6.7125,5.4592,1.0481,-1.6124,-0.0105
1764312954900,3.6975,6.9745,5.5801,1.0481,-1.6124,-0.0105
1764312954910,3.6975,6.9745,5.5801,1.0481,-1.6124,-0.0105
1764312954920,3.6018,6.7848,7.0887,1.3317,-2.418,-0.2561
1764312954930,3.6018,6.7848,7.0887,1.3317,-2.418,-0.2561
1764312954940,3.6018,6.7848,7.0887,1.892,-2.8468,-0.3607
1764312954950,3.344,6.7992,7.2347,1.892,-2.8468,-0.3607
1764312954960,3.344,6.7992,7.2347,2.1619,-2.4132,-0.2295
1764312954970,3.6048,7.3077,5.1171,2.1619,-2.4132,-0.2295
1764312954980,3.6048,7.3077,5.1171,1.6431,-1.366,-0.0353
1764312954990,4.1862,7.9573,3.399,1.6431,-1.366,-0.0353
1764312955000,4.1862,7.9573,3.399,0.3567,0.5719,0.2489
1764312955010,4.5751,8.455,3.658,0.3567,0.5719,0.2489
1764312955020,4.5751,8.455,3.658,-2.1353,5.1375,0.7457
1764312955030,6.1244,9.4457,1.3753,-2.1353,5.1375,0.7457
1764312955040,6.1244,9.4457,1.3753,-2.1353,5.1375,0.7457
1764312955050,7.4955,9.8489,-0.874,-6.3437,11.7341,0.9956
1764312955060,7.4955,9.8489,-0.874,-6.3437,11.7341,0.9956
1764312955070,7.4955,9.8489,-0.874,-10.544,17.8904,0.299
1764312955080,3.7968,7.5918,-1.587,-10.544,17.8904,0.299
1764312955090,3.7968,7.5918,-1.587,-11.6709,19.4437,-0.9985
1764312955100,-3.8112,3.2052,-1.2999,-11.6709,19.4437,-0.9985
1764312955110,-3.8112,3.2052,-1.2999,-8.3078,13.217,-1.876
1764312955120,-10.6445,-2.8283,1.5135,-8.3078,13.217,-1.876
1764312955130,-10.6445,-2.8283,1.5135,-2.2885,2.1305,-1.9873
1764312955140,-12.527,-5.2056,9.8201,-2.2885,2.1305,-1.9873
1764312955150,-12.527,-5.2056,9.8201,1.7327,-3.4723,-1.2805
1764312955160,-10.7234,-4.9854,11.0662,1.7327,-3.4723,-1.2805
1764312955170,-10.7234,-4.9854,11.0662,1.7327,-3.4723,-1.2805
1764312955180,-7.721,-1.806,6.786,1.3987,-2.0783,-0.1926
1764312955190,-7.721,-1.806,6.786,1.3987,-2.0783,-0.1926
1764312955200,-7.721,-1.806,6.786,-0.5238,-0.3296,0.1023
1764312955210,-6.8435,0.2835,8.5041,-0.5238,-0.3296,0.1023
1764312955220,-6.8435,0.2835,8.5041,-0.9273,-0.2999,-0.0899
1764312955230,-7.139,0.3272,11.5029,-0.9273,-0.2999,-0.0899
1764312955240,-7.139,0.3272,11.5029,0.1645,-1.409,-0.1721
1764312955250,-7.3017,0.0921,11.3994,0.1645,-1.409,-0.1721
1764312955260,-7.3017,0.0921,11.3994,1.2614,-2.6124,-0.0826
1764312955270,-6.9212,0.0,9.2249,1.2614,-2.6124,-0.0826
1764312955280,-6.9212,0.0,9.2249,1.7831,-3.8486,0.0825
1764312955290,-4.9274,0.2566,9.8919,1.7831,-3.8486,0.0825
1764312955300,-4.9274,0.2566,9.8919,1.9535,-3.9818,0.1451
1764312955310,-2.394,1.2491,10.5667,1.9535,-3.9818,0.1451
1764312955320,-2.394,1.2491,10.5667,1.9535,-3.9818,0.1451
1764312955330,-2.394,1.2491,10.5667,1.3115,-2.321,-0.0014
1764312955340,-2.7135,1.1085,9.8124,1.3115,-2.321,-0.0014
1764312955350,-2.7135,1.1085,9.8124,0.3961,-0.7168,0.0347
1764312955360,-3.5605,1.1486,9.0197,0.3961,-0.7168,0.0347
1764312955370,-3.5605,1.1486,9.0197,0.5953,-1.4487,-0.0667
1764312955380,-3.9799,0.7926,10.0098,0.5953,-1.4487,-0.0667
1764312955390,-3.9799,0.7926,10.0098,2.142,-3.9305,-0.2156
1764312955400,-3.0215,1.2215,10.1791,2.142,-3.9305,-0.2156
1764312955410,-3.0215,1.2215,10.1791,3.9575,-6.5902,-0.427
1764312955420,-0.9476,2.3294,9.2614,3.9575,-6.5902,-0.427
1764312955430,-0.9476,2.3294,9.2614,5.1006,-8.354,-0.7491
1764312955440,-0.9476,2.3294,9.2614,5.1006,-8.354,-0.7491
1764312955450,0.9829,3.457,8.7577,5.1006,-8.354,-0.7491
1764312955460,2.4808,4.5332,9.4678,5.3652,-8.685,-0.9684
1764312955470,2.4808,4.5332,9.4678,5.3652,-8.685,-0.9684
1764312955480,2.4808,4.5332,9.4678,4.6902,-6.813,-0.8599
1764312955490,2.9432,5.199,7.794,4.6902,-6.813,-0.8599
1764312955500,2.9432,5.199,7.794,3.0036,-3.5641,-0.4771
1764312955510,2.8415,5.8786,5.6536,3.0036,-3.5641,-0.4771
1764312955520,2.8415,5.8786,5.6536,1.0163,-0.445,0.0402
1764312955530,3.5701,6.7831,4.468,1.0163,-0.445,0.0402
1764312955540,3.5701,6.7831,4.468,-0.4465,1.5375,0.2242
1764312955550,3.9272,6.9649,3.0114,-0.4465,1.5375,0.2242
1764312955560,3.9272,6.9649,3.0114,-0.9762,1.2304,-0.015
1764312955570,3.0927,6.28,5.0333,-0.9762,1.2304,-0.015
1764312955580,3.0927,6.28,5.0333,-0.9762,1.2304,-0.015
1764312955590,3.0927,6.28,5.0333,-0.4062,-0.1272,-0.2188
1764312955600,2.5669,5.4221,8.0937,-0.4062,-0.1272,-0.2188
1764312955610,2.5669,5.4221,8.0937,0.4575,-0.6701,-0.1419
1764312955620,2.589,5.0357,7.9071,0.4575,-0.6701,-0.1419
1764312955630,2.589,5.0357,7.9071,0.6104,-0.2543,0.1235
1764312955640,3.4313,5.6022,6.5198,0.6104,-0.2543,0.1235
1764312955650,3.4313,5.6022,6.5198,0.1277,0.4502,0.2644
1764312955660,4.1761,6.457,5.5406,0.1277,0.4502,0.2644
1764312955670,4.1761,6.457,5.5406,-0.3977,0.7792,0.1666
1764312955680,4.1695,6.6425,5.9163,-0.3977,0.7792,0.1666
1764312955690,4.1695,6.6425,5.9163,-0.6101,0.7097,-0.0092
1764312955700,3.8189,6.3027,7.3729,-0.6101,0.7097,-0.0092
1764312955710,3.8189,6.3027,7.3729,-0.6101,0.7097,-0.0092
1764312955720,3.8363,6.07,8.4006,-0.4472,0.5944,-0.115
1764312955730,3.8363,6.07,8.4006,-0.4472,0.5944,-0.115
1764312955740,3.8363,6.07,8.4006,-0.1104,0.5829,-0.1819
1764312955750,3.8973,6.2405,8.5196,-0.1104,0.5829,-0.1819
1764312955760,3.8973,6.2405,8.5196,0.1684,0.6135,-0.252
1764312955770,2.8493,5.5765,7.1198,0.1684,0.6135,-0.252
1764312955780,2.8493,5.5765,7.1198,0.23,0.4539,-0.091
1764312955790,2.5878,6.5527,5.875,0.23,0.4539,-0.091
1764312955800,2.5878,6.5527,5.875,-0.1283,0.4143,0.0652
1764312955810,2.8887,6.1334,6.5785,-0.1283,0.4143,0.0652
1764312955820,2.8887,6.1334,6.5785,-0.3415,0.5423,0.1048
1764312955830,2.942,5.9169,7.3442,-0.3415,0.5423,0.1048
1764312955840,2.942,5.9169,7.3442,-0.3415,0.5423,0.1048
1764312955850,2.7099,5.6435,7.1749,-0.2199,0.5,0.0535
1764312955860,2.7099,5.6435,7.1749,-0.2199,0.5,0.0535
1764312955870,2.7099,5.6435,7.1749,-0.0612,0.2923,0.0153
1764312955880,2.7087,5.7302,6.7974,-0.0612,0.2923,0.0153
1764312955890,2.7087,5.7302,6.7974,-0.0005,0.0009,-0.0451
1764312955900,2.5842,5.7398,7.2102,-0.0005,0.0009,-0.0451
1764312955910,2.5842,5.7398,7.2102,0.0299,-0.1077,-0.0649
1764312955920,2.3402,5.72,7.4674,0.0299,-0.1077,-0.0649
1764312955930,2.3402,5.72,7.4674,0.004,-0.0173,-0.0182
1764312955940,2.141,5.6794,7.3603,0.004,-0.0173,-0.0182
1764312955950,2.141,5.6794,7.3603,-0.0608,0.0739,0.0628
1764312955960,2.4138,5.7733,7.3974,-0.0608,0.0739,0.0628
1764312955970,2.4138,5.7733,7.3974,-0.0935,0.1109,0.0884
1764312955980,3.1143,5.939,7.5882,-0.0935,0.1109,0.0884
1764312955990,3.1143,5.939,7.5882,-0.0935,0.1109,0.0884
1764312956000,3.1406,6.0191,7.7755,-0.0637,0.1133,-0.0035
1764312956010,3.1406,6.0191,7.7755,-0.0637,0.1133,-0.0035
1764312956020,3.1406,6.0191,7.7755,0.0365,0.0678,-0.0976
1764312956030,2.7194,5.9408,7.6104,0.0365,0.0678,-0.0976
1764312956040,2.7194,5.9408,7.6104,0.0983,0.0182,-0.0765
1764312956050,2.3737,5.8397,7.4285,0.0983,0.0182,-0.0765
1764312956060,2.3737,5.8397,7.4285,0.1271,-0.0238,0.009
1764312956070,2.6608,6.0682,7.2664,0.1271,-0.0238,0.009
1764312956080,2.6608,6.0682,7.2664,0.1205,-0.0629,0.0255
1764312956090,3.0311,6.0843,7.0463,0.1205,-0.0629,0.0255
1764312956100,3.0311,6.0843,7.0463,0.1205,-0.0629,0.0255
1764312956110,2.9432,6.0586,7.188,0.0695,-0.0702,-0.0382
1764312956120,2.9432,6.0586,7.188,0.0695,-0.0702,-0.0382
1764312956130,2.8379,5.985,7.188,-0.0034,0.0182,-0.0683
1764312956140,2.8379,5.985,7.188,-0.0034,0.0182,-0.0683
1764312956150,2.8379,5.985,7.188,-0.0559,0.0816,-0.0673
1764312956160,2.6925,5.8738,7.1581,-0.0559,0.0816,-0.0673
1764312956170,2.6925,5.8738,7.1581,-0.075,0.0385,-0.06
1764312956180,2.7326,5.9521,7.657,-0.075,0.0385,-0.06
1764312956190,2.7326,5.9521,7.657,0.0128,-0.0006,-0.0802
1764312956200,2.808,5.9043,7.5841,0.0128,-0.0006,-0.0802
1764312956210,2.808,5.9043,7.5841,0.0932,-0.0173,-0.1205
1764312956220,2.7577,5.9856,7.4907,0.0932,-0.0173,-0.1205
1764312956230,2.7577,5.9856,7.4907,0.1013,0.0341,-0.1355
1764312956240,2.6213,6.0042,7.4237,0.1013,0.0341,-0.1355
1764312956250,2.6213,6.0042,7.4237,0.1013,0.0341,-0.1355
1764312956260,2.3306,5.869,7.4644,0.0397,0.1179,-0.1184
1764312956270,2.3306,5.869,7.4644,0.0397,0.1179,-0.1184
1764312956280,2.3306,5.869,7.4644,0.0101,0.1355,-0.0533
1764312956290,2.2989,5.9791,7.416,0.0101,0.1355,-0.0533
1764312956300,2.2989,5.9791,7.416,0.0557,0.0218,-0.025
1764312956310,2.482,6.0144,7.4243,0.0557,0.0218,-0.025
1764312956320,2.482,6.0144,7.4243,0.1066,-0.0585,-0.0402
1764312956330,2.7296,6.1017,7.4465,0.1066,-0.0585,-0.0402
1764312956340,2.7296,6.1017,7.4465,0.1323,-0.0625,-0.0959
1764312956350,2.662,6.003,7.7444,0.1323,-0.0625,-0.0959
1764312956360,2.662,6.003,7.7444,0.1814,0.0495,-0.1138
1764312956370,2.4156,5.9533,7.3346,0.1814,0.0495,-0.1138
1764312956380,2.4156,5.9533,7.3346,0.1796,0.0861,-0.0814
1764312956390,2.2146,6.1334,6.5133,0.1796,0.0861,-0.0814
1764312956400,2.2146,6.1334,6.5133,0.1796,0.0861,-0.0814
1764312956410,2.2923,6.1848,6.7801,0.1098,-0.0932,-0.0594
1764312956420,2.2923,6.1848,6.7801,0.1098,-0.0932,-0.0594
1764312956430,2.2923,6.1848,6.7801,0.0724,-0.1758,-0.048
1764312956440,2.5041,6.1029,7.5027,0.0724,-0.1758,-0.048
1764312956450,2.5041,6.1029,7.5027,0.0838,-0.0455,-0.0564
1764312956460,2.7984,6.2213,7.3974,0.0838,-0.0455,-0.0564
1764312956470,2.7984,6.2213,7.3974,0.0976,0.0915,-0.1034
1764312956480,2.6847,6.2788,6.6365,0.0976,0.0915,-0.1034
1764312956490,2.6847,6.2788,6.6365,0.0476,-0.0218,-0.1474
1764312956500,2.3103,6.2471,6.8255,0.0476,-0.0218,-0.1474
1764312956510,2.3103,6.2471,6.8255,-0.0254,-0.067,-0.0932
1764312956520,2.3737,6.2177,7.5123,-0.0254,-0.067,-0.0932
1764312956530,2.3737,6.2177,7.5123,-0.0254,-0.067,-0.0932
1764312956540,2.3737,6.2177,7.5123,-0.0722,0.1594,-0.0275
1764312956550,2.3767,6.073,7.5727,-0.0722,0.1594,-0.0275
1764312956560,2.3767,6.073,7.5727,-0.0828,0.361,-0.027
1764312956570,2.3689,6.2405,7.142,-0.0828,0.361,-0.027
1764312956580,2.3689,6.2405,7.142,-0.0918,0.3276,-0.093
1764312956590,2.4263,6.2339,6.8895,-0.0918,0.3276,-0.093
1764312956600,2.4263,6.2339,6.8895,-0.0672,0.1567,-0.1052
1764312956610,2.5663,6.3996,7.3011,-0.0672,0.1567,-0.1052
1764312956620,2.5663,6.3996,7.3011,-0.1503,0.2931,-0.1985
1764312956630,2.3174,6.2088,7.1581,-0.1503,0.2931,-0.1985
1764312956640,2.3174,6.2088,7.1581,-0.2375,0.3549,-0.173
1764312956650,1.9651,6.1143,7.0983,-0.2375,0.3549,-0.173
1764312956660,1.9651,6.1143,7.0983,-0.2375,0.3549,-0.173
1764312956670,2.1027,6.0909,7.2293,-0.2443,0.3138,-0.0858
1764312956680,2.1027,6.0909,7.2293,-0.2443,0.3138,-0.0858
1764312956690,2.1027,6.0909,7.2293,-0.1854,0.254,-0.0785
1764312956700,2.1978,5.7655,7.5212,-0.1854,0.254,-0.0785
1764312956710,2.1978,5.7655,7.5212,-0.1565,0.2613,0.0307
1764312956720,1.7773,5.7589,7.3161,-0.1565,0.2613,0.0307
1764312956730,1.7773,5.7589,7.3161,-0.2277,0.2459,0.1272
1764312956740,2.1212,6.4098,7.6415,-0.2277,0.2459,0.1272
1764312956750,2.1212,6.4098,7.6415,-0.1851,0.2442,0.0286
1764312956760,2.3803,6.1687,7.7659,-0.1851,0.2442,0.0286
1764312956770,2.3803,6.1687,7.7659,-0.1761,0.2706,-0.0841
1764312956780,2.12,6.3326,7.191,-0.1761,0.2706,-0.0841
1764312956790,2.12,6.3326,7.191,-0.1761,0.2706,-0.0841
1764312956800,2.12,6.3326,7.191,-0.1458,-0.0079,-0.1958
1764312956810,1.7432,6.0377,7.8838,-0.1458,-0.0079,-0.1958
1764312956820,1.7432,6.0377,7.8838,0.0179,-0.1469,-0.2136
1764312956830,1.541,5.6566,8.0943,0.0179,-0.1469,-0.2136
1764312956840,1.541,5.6566,8.0943,0.175,-0.1304,-0.1028
1764312956850,1.7773,5.7942,7.7803,0.175,-0.1304,-0.1028
1764312956860,1.7773,5.7942,7.7803,0.111,0.0104,-0.0687
1764312956870,1.8078,5.9121,7.611,0.111,0.0104,-0.0687
1764312956880,1.8078,5.9121,7.611,-0.0012,0.1237,-0.0588
1764312956890,1.7121,5.9378,7.4447,-0.0012,0.1237,-0.0588
1764312956900,1.7121,5.9378,7.4447,-0.0012,0.1237,-0.0588
1764312956910,1.7288,5.9856,7.5452,0.0166,0.0327,-0.0431
1764312956920,1.7288,5.9856,7.5452,0.0545,-0.0316,-0.0307
1764312956930,1.8078,5.9695,7.7318,0.0545,-0.0316,-0.0307
1764312956940,1.8078,5.9695,7.7318,0.0545,-0.0316,-0.0307
1764312956950,1.8078,5.9695,7.7318,0.0805,-0.0182,-0.024
1764312956960,1.9591,6.1173,7.5003,0.0805,-0.0182,-0.024
1764312956970,1.9591,6.1173,7.5003,0.0993,-0.0793,-0.0605
1764312956980,1.8024,6.1005,7.4955,0.0993,-0.0793,-0.0605
1764312956990,1.8024,6.1005,7.4955,0.1388,-0.1733,-0.0496
1764312957000,1.7103,6.0455,7.6457,0.1388,-0.1733,-0.0496
1764312957010,1.7103,6.0455,7.6457,0.1381,-0.0849,-0.0365
1764312957020,1.7097,5.9898,7.3316,0.1381,-0.0849,-0.0365
1764312957030,1.7097,5.9898,7.3316,0.0903,-0.0846,0.007
1764312957040,1.7611,5.9246,7.6439,0.0903,-0.0846,0.007
1764312957050,1.7611,5.9246,7.6439,0.0903,-0.0846,0.007
1764312957060,2.0465,6.14,7.931,0.0912,-0.0654,0.0593
1764312957070,2.0465,6.14,7.931,0.0912,-0.0654,0.0593
1764312957080,2.0853,6.2405,7.4883,0.1356,0.0246,0.0214
1764312957090,2.0853,6.2405,7.4883,0.1356,0.0246,0.0214
1764312957100,2.0853,6.2405,7.4883,0.16,-0.0849,-0.0463
1764312957110,1.8293,6.1196,7.5153,0.16,-0.0849,-0.0463
1764312957120,1.8293,6.1196,7.5153,0.2891,-0.3334,-0.0509
1764312957130,1.602,5.9964,7.9119,0.2891,-0.3334,-0.0509
1764312957140,1.602,5.9964,7.9119,0.4934,-0.5247,0.0075
1764312957150,1.8682,6.1525,7.9137,0.4934,-0.5247,0.0075
1764312957160,1.8682,6.1525,7.9137,0.617,-0.502,0.029
1764312957170,1.9938,6.2148,7.2706,0.617,-0.502,0.029
1764312957180,1.9938,6.2148,7.2706,0.5931,-0.4946,0.08
1764312957190,2.0034,6.3888,7.0445,0.5931,-0.4946,0.08
1764312957200,2.0034,6.3888,7.0445,0.5931,-0.4946,0.08
1764312957210,2.2552,6.6586,6.8722,0.5699,-0.5399,0.1182
1764312957220,2.2552,6.6586,6.8722,0.5699,-0.5399,0.1182
1764312957230,2.2552,6.6586,6.8722,0.6339,-0.6684,0.0226
1764312957240,2.272,6.5103,6.7298,0.6339,-0.6684,0.0226
1764312957250,2.272,6.5103,6.7298,0.7349,-0.7837,0.0426
1764312957260,2.0877,6.4433,6.7143,0.7349,-0.7837,0.0426
1764312957270,2.0877,6.4433,6.7143,0.7304,-0.7181,0.1509
1764312957280,2.3701,6.7418,6.5073,0.7304,-0.7181,0.1509
1764312957290,2.3701,6.7418,6.5073,0.5705,-0.3545,0.191
1764312957300,2.8092,6.9517,5.9007,0.5705,-0.3545,0.191
1764312957310,2.8092,6.9517,5.9007,0.2266,0.1249,0.1868
1764312957320,2.9288,7.0666,5.6596,0.2266,0.1249,0.1868
1764312957330,2.9288,7.0666,5.6596,-0.2705,0.9919,0.243
1764312957340,3.667,7.6893,6.5898,-0.2705,0.9919,0.243
1764312957350,3.667,7.6893,6.5898,-0.2705,0.9919,0.243
1764312957360,3.667,7.6893,6.5898,-1.5029,3.9008,0.4
1764312957370,5.7057,8.7434,4.7761,-1.5029,3.9008,0.4
1764312957380,5.7057,8.7434,4.7761,-4.631,9.867,0.3935
1764312957390,7.2072,10.3406,0.9015,-4.631,9.867,0.3935
1764312957400,7.2072,10.3406,0.9015,-8.8638,16.7901,-0.2447
1764312957410,6.1101,8.5167,-4.9639,-8.8638,16.7901,-0.2447
1764312957420,6.1101,8.5167,-4.9639,-10.9766,18.2896,-2.0133
1764312957430,-2.4586,3.8106,-3.6592,-10.9766,18.2896,-2.0133
1764312957440,-2.4586,3.8106,-3.6592,-7.6221,11.669,-3.072
1764312957450,-11.8935,-3.5731,-0.1848,-7.6221,11.669,-3.072
1764312957460,-11.8935,-3.5731,-0.1848,-1.4844,0.8555,-2.8546
1764312957470,-15.6377,-7.118,8.1942,-1.4844,0.8555,-2.8546
1764312957480,-15.6377,-7.118,8.1942,-1.4844,0.8555,-2.8546
1764312957490,-15.6377,-7.118,8.1942,1.7804,-3.759,-1.4626
1764312957500,-12.6736,-6.859,11.0626,1.7804,-3.759,-1.4626
1764312957510,-12.6736,-6.859,11.0626,1.1069,-1.6455,-0.1501
1764312957520,-8.4497,-1.9448,6.9978,1.1069,-1.6455,-0.1501
1764312957530,-8.4497,-1.9448,6.9978,-0.6069,0.0666,-0.1998
1764312957540,-9.1155,-0.5037,8.1996,-0.6069,0.0666,-0.1998
1764312957550,-9.1155,-0.5037,8.1996,-0.4875,-0.7271,-0.4275
1764312957560,-10.2233,-0.6664,10.6971,-0.4875,-0.7271,-0.4275
1764312957570,-10.2233,-0.6664,10.6971,1.0893,-2.7446,-0.3937
1764312957580,-10.4536,-1.3268,9.9847,1.0893,-2.7446,-0.3937
1764312957590,-10.4536,-1.3268,9.9847,2.4978,-4.9315,-0.0434
1764312957600,-8.8259,-1.3244,8.8899,2.4978,-4.9315,-0.0434
1764312957610,-8.8259,-1.3244,8.8899,2.4978,-4.9315,-0.0434
1764312957620,-4.5739,0.0556,11.4395,3.5099,-7.1241,0.2686
1764312957630,-4.5739,0.0556,11.4395,3.5099,-7.1241,0.2686
1764312957640,-4.5739,0.0556,11.4395,4.8242,-8.5707,0.0872
1764312957650,-2.0931,1.2778,12.8243,4.8242,-8.5707,0.0872
1764312957660,-2.0931,1.2778,12.8243,5.6093,-8.1931,-0.1562
1764312957670,-1.078,2.2193,10.1408,5.6093,-8.1931,-0.1562
1764312957680,-1.078,2.2193,10.1408,5.0453,-6.7314,-0.1384
1764312957690,0.2489,3.5539,8.3521,5.0453,-6.7314,-0.1384
1764312957700,0.2489,3.5539,8.3521,3.6117,-4.2347,0.0182
1764312957710,1.8664,5.0172,7.2867,3.6117,-4.2347,0.0182
1764312957720,1.8664,5.0172,7.2867,1.7654,-1.2341,0.0148
1764312957730,1.6193,5.4012,5.4796,1.7654,-1.2341,0.0148
1764312957740,1.6193,5.4012,5.4796,1.7654,-1.2341,0.0148
1764312957750,1.6193,5.4012,5.4796,0.4018,0.3015,-0.0463
1764312957760,0.6221,5.1147,5.275,0.4018,0.3015,-0.0463
1764312957770,0.6221,5.1147,5.275,0.1057,0.0034,-0.0893
1764312957780,0.2459,4.736,6.4834,0.1057,0.0034,-0.0893
1764312957790,0.2459,4.736,6.4834,0.5921,-1.0766,-0.1567
1764312957800,0.1657,4.3998,8.6381,0.5921,-1.0766,-0.1567
1764312957810,0.1657,4.3998,8.6381,1.1556,-1.4048,-0.057
1764312957820,0.5342,4.4411,8.5854,1.1556,-1.4048,-0.057
1764312957830,0.5342,4.4411,8.5854,1.014,-0.7234,0.1953
1764312957840,1.4991,5.3121,7.1145,1.014,-0.7234,0.1953
1764312957850,1.4991,5.3121,7.1145,0.3392,0.1211,0.3036
1764312957860,2.1182,6.0048,6.4875,0.3392,0.1211,0.3036
1764312957870,2.1182,6.0048,6.4875,-0.1793,0.3961,0.2193
1764312957880,2.3097,6.1161,7.2855,-0.1793,0.3961,0.2193
1764312957890,2.3097,6.1161,7.2855,-0.1793,0.3961,0.2193
1764312957900,2.3097,6.1161,7.2855,-0.1048,0.0278,0.0542
1764312957910,2.7099,5.8654,8.8546,-0.1048,0.0278,0.0542
1764312957920,2.7099,5.8654,8.8546,0.2535,-0.0707,-0.1264
1764312957930,3.4839,6.1316,9.6479,0.2535,-0.0707,-0.1264
1764312957940,3.4839,6.1316,9.6479,0.3803,0.5287,-0.3118
1764312957950,1.7611,4.7773,9.8136,0.3803,0.5287,-0.3118
1764312957960,1.7611,4.7773,9.8136,0.3541,1.5217,0.0886
1764312957970,0.1543,5.6883,6.1496,0.3541,1.5217,0.0886
1764312957980,0.1543,5.6883,6.1496,-0.2269,1.742,0.6162
1764312957990,0.4134,6.6156,4.4016,-0.2269,1.742,0.6162
1764312958000,0.4134,6.6156,4.4016,-0.2269,1.742,0.6162
1764312958010,0.4134,6.6156,4.4016,-0.7107,1.0073,0.655
1764312958020,1.8078,6.0826,6.5169,-0.7107,1.0073,0.655
1764312958030,1.8078,6.0826,6.5169,-0.4835,0.1988,0.2999
1764312958040,1.8126,5.7332,8.1817,-0.4835,0.1988,0.2999
1764312958050,1.8126,5.7332,8.1817,0.0032,-0.3496,0.007
1764312958060,1.4309,5.2624,8.9575,0.0032,-0.3496,0.007
1764312958070,1.4309,5.2624,8.9575,0.281,-0.2714,-0.0307
1764312958080,1.3675,5.1811,8.0734,0.281,-0.2714,-0.0307
1764312958090,1.3675,5.1811,8.0734,0.2283,-0.0907,-0.0386
1764312958100,1.0576,5.4861,7.5434,0.2283,-0.0907,-0.0386
1764312958110,1.0576,5.4861,7.5434,0.088,-0.0693,-0.0319
1764312958120,1.0845,5.601,7.8263,0.088,-0.0693,-0.0319
1764312958130,1.0845,5.601,7.8263,0.0301,-0.0446,-0.0399
1764312958140,1.1258,5.6118,8.2744,0.0301,-0.0446,-0.0399
1764312958150,1.1258,5.6118,8.2744,0.0301,-0.0446,-0.0399
1764312958160,1.1665,5.7248,7.797,0.0699,0.026,-0.0202
1764312958170,1.1665,5.7248,7.797,0.0699,0.026,-0.0202
1764312958180,1.1665,5.7248,7.797,0.0976,-0.0596,-0.0418
1764312958190,1.4297,5.8128,7.8407,0.0976,-0.0596,-0.0418
1764312958200,1.4297,5.8128,7.8407,0.0589,-0.0536,-0.0886
1764312958210,1.5727,5.7745,8.1643,0.0589,-0.0536,-0.0886
1764312958220,1.5727,5.7745,8.1643,0.0389,0.0547,-0.1326
1764312958230,1.3125,5.7236,7.9681,0.0389,0.0547,-0.1326
1764312958240,1.3125,5.7236,7.9681,0.0605,0.0478,-0.1264
1764312958250,1.0941,5.7075,7.6965,0.0605,0.0478,-0.1264
1764312958260,1.0941,5.7075,7.6965,0.0605,0.0478,-0.1264
1764312958270,1.4483,5.7416,8.4849,0.0301,-0.0357,-0.0996
1764312958280,1.4483,5.7416,8.4849,0.0301,-0.0357,-0.0996
1764312958290,1.2215,5.5813,8.1942,0.0831,0.0231,-0.1115
1764312958300,1.2215,5.5813,8.1942,0.0831,0.0231,-0.1115
1764312958310,1.2215,5.5813,8.1942,0.1379,-0.0388,-0.0988
1764312958320,1.136,5.8397,7.9603,0.1379,-0.0388,-0.0988
1764312958330,1.136,5.8397,7.9603,0.1428,-0.1298,-0.091
1764312958340,1.136,5.8397,7.9603,0.1428,-0.1298,-0.091
1764312958350,1.2891,5.9498,7.9585,0.1559,-0.1695,-0.1419
1764312958360,1.2126,5.8337,8.126,0.1559,-0.1695,-0.1419
1764312958370,1.2126,5.8337,8.126,0.1975,-0.1872,-0.1558
1764312958380,1.2843,5.8528,8.0148,0.1975,-0.1872,-0.1558
1764312958390,1.2843,5.8528,8.0148,0.2309,-0.2246,-0.1851
1764312958400,1.1228,5.8068,7.8042,0.2309,-0.2246,-0.1851
1764312958410,1.1228,5.8068,7.8042,0.2309,-0.2246,-0.1851
1764312958420,1.0469,5.8588,7.5817,0.254,-0.318,-0.1787
1764312958430,1.0469,5.8588,7.5817,0.254,-0.318,-0.1787
1764312958440,1.0469,5.8588,7.5817,0.3253,-0.5618,-0.1736
1764312958450,1.136,5.8325,7.8993,0.3253,-0.5618,-0.1736
1764312958460,1.136,5.8325,7.8993,0.3881,-0.618,-0.1384
1764312958470,1.2526,5.8899,7.8855,0.3881,-0.618,-0.1384
1764312958480,1.2526,5.8899,7.8855,0.3949,-0.5483,-0.1069
1764312958490,1.541,6.0395,7.8042,0.3949,-0.5483,-0.1069
1764312958500,1.541,6.0395,7.8042,0.4653,-0.6124,-0.1396
1764312958510,1.5266,5.9976,7.9908,0.4653,-0.6124,-0.1396
1764312958520,1.5266,5.9976,7.9908,0.7378,-0.9433,-0.1938
1764312958530,1.5535,6.1316,8.1224,0.7378,-0.9433,-0.1938
1764312958540,1.5535,6.1316,8.1224,1.0449,-1.2605,-0.2225
1764312958550,1.4082,6.253,7.678,1.0449,-1.2605,-0.2225
1764312958560,1.4082,6.253,7.678,1.0449,-1.2605,-0.2225
1764312958570,0.6048,5.985,7.6044,1.1576,-1.3523,-0.1901
1764312958580,0.6048,5.985,7.6044,1.1576,-1.3523,-0.1901
1764312958590,0.6048,5.985,7.6044,1.204,-1.1576,0.1516
1764312958600,1.2622,6.3123,6.4588,1.204,-1.1576,0.1516
1764312958610,1.2622,6.3123,6.4588,1.1003,-1.1434,0.2975
1764312958620,2.2744,6.8596,6.2776,1.1003,-1.1434,0.2975
1764312958630,2.2744,6.8596,6.2776,1.0705,-1.1258,0.2388
1764312958640,2.9318,7.2233,5.8995,1.0705,-1.1258,0.2388
1764312958650,2.9318,7.2233,5.8995,1.0014,-0.9649,0.08
1764312958660,2.5651,7.1515,5.6584,1.0014,-0.9649,0.08
1764312958670,2.5651,7.1515,5.6584,0.5399,-0.0498,0.1949
1764312958680,2.9097,7.4255,5.6758,0.5399,-0.0498,0.1949
1764312958690,2.9097,7.4255,5.6758,0.5399,-0.0498,0.1949
1764312958700,2.9097,7.4255,5.6758,-0.9534,2.9218,0.6093
1764312958710,5.6154,8.9749,4.2915,-0.9534,2.9218,0.6093
1764312958720,5.6154,8.9749,4.2915,-4.0739,8.3475,0.5976
1764312958730,8.5023,10.605,2.6255,-4.0739,8.3475,0.5976
1764312958740,8.5023,10.605,2.6255,-7.8334,14.7391,-0.1423
1764312958750,8.0602,9.6706,0.2644,-7.8334,14.7391,-0.1423
1764312958760,8.0602,9.6706,0.2644,-9.9681,18.6543,-1.5473
1764312958770,0.9763,5.9533,-1.0941,-9.9681,18.6543,-1.5473
1764312958780,0.9763,5.9533,-1.0941,-8.4609,16.4698,-2.6189
1764312958790,-9.003,-0.4804,-2.7517,-8.4609,16.4698,-2.6189
1764312958800,-9.003,-0.4804,-2.7517,-3.8787,7.4752,-2.4609
1764312958810,-9.003,-0.4804,-2.7517,-3.8787,7.4752,-2.4609
1764312958820,-14.5005,-3.4564,0.4899,-3.8787,7.4752,-2.4609
1764312958830,-14.6249,-5.5878,6.6317,0.4006,-1.0351,-1.8989
1764312958840,-14.6249,-5.5878,6.6317,0.4006,-1.0351,-1.8989
1764312958850,-14.6249,-5.5878,6.6317,1.0217,-1.8349,-0.6147
1764312958860,-11.2253,-3.1573,6.9057,1.0217,-1.8349,-0.6147
1764312958870,-11.2253,-3.1573,6.9057,-0.1532,0.06,0.1216
1764312958880,-8.8325,0.6108,5.4556,-0.1532,0.06,0.1216
1764312958890,-8.8325,0.6108,5.4556,-0.3618,-0.1318,-0.1848
1764312958900,-9.9559,0.5755,5.9856,-0.3618,-0.1318,-0.1848
1764312958910,-9.9559,0.5755,5.9856,0.1491,-1.3807,-0.296
1764312958920,-10.7312,0.0461,6.5964,0.1491,-1.3807,-0.296
1764312958930,-10.7312,0.0461,6.5964,0.7341,-2.6423,-0.0275
1764312958940,-10.1516,-0.2094,5.4622,0.7341,-2.6423,-0.0275
1764312958950,-10.1516,-0.2094,5.4622,0.7341,-2.6423,-0.0275
1764312958960,-8.1613,0.1406,5.4586,1.3434,-4.6073,0.2436
1764312958970,-8.1613,0.1406,5.4586,1.3434,-4.6073,0.2436
1764312958980,-8.1613,0.1406,5.4586,2.3248,-7.2824,0.3089
1764312958990,-5.3492,0.7531,7.1462,2.3248,-7.2824,0.3089
1764312959000,-5.3492,0.7531,7.1462,3.3805,-9.3777,0.2046
1764312959010,-2.4437,1.2999,8.9874,3.3805,-9.3777,0.2046
1764312959020,-2.4437,1.2999,8.9874,4.1013,-10.2786,0.0483
1764312959030,1.2108,2.3737,11.2349,4.1013,-10.2786,0.0483
1764312959040,1.2108,2.3737,11.2349,4.5271,-9.8791,-0.3228
1764312959050,3.2716,4.3053,13.3364,4.5271,-9.8791,-0.3228
1764312959060,3.2716,4.3053,13.3364,4.4955,-7.7981,-0.7552
1764312959070,2.6225,4.5141,11.519,4.4955,-7.7981,-0.7552
1764312959080,2.6225,4.5141,11.519,3.3617,-4.6551,-0.5941
1764312959090,2.4903,5.2564,8.7165,3.3617,-4.6551,-0.5941
1764312959100,2.4903,5.2564,8.7165,3.3617,-4.6551,-0.5941
1764312959110,2.4903,5.2564,8.7165,1.547,-1.3906,-0.2836
1764312959120,2.5041,5.8636,6.7173,1.547,-1.3906,-0.2836
1764312959130,2.5041,5.8636,6.7173,0.0574,0.7691,-0.1298
1764312959140,2.1649,5.7535,6.0568,0.0574,0.7691,-0.1298
1764312959150,2.1649,5.7535,6.0568,-0.4452,1.0272,-0.1762
1764312959160,1.3723,5.2056,6.9296,-0.4452,1.0272,-0.1762
1764312959170,1.3723,5.2056,6.9296,-0.007,0.1639,-0.208
1764312959180,0.9793,4.6499,7.8084,-0.007,0.1639,-0.208
1764312959190,0.9793,4.6499,7.8084,0.5305,-0.4656,-0.0846
1764312959200,1.0367,4.4154,8.0865,0.5305,-0.4656,-0.0846
1764312959210,1.0367,4.4154,8.0865,0.5305,-0.4656,-0.0846
1764312959220,1.544,4.5464,7.8532,0.5815,-0.286,0.1301
1764312959230,1.544,4.5464,7.8532,0.5815,-0.286,0.1301
1764312959240,2.4251,5.2463,6.6138,0.2818,0.3192,0.2851
1764312959250,2.4251,5.2463,6.6138,0.2818,0.3192,0.2851
1764312959260,2.4251,5.2463,6.6138,-0.0843,0.3574,0.191
1764312959270,4.0313,6.0174,7.7958,-0.0843,0.3574,0.191
1764312959280,4.0313,6.0174,7.7958,-0.1594,0.4417,-0.245
1764312959290,4.8526,6.4092,10.4566,-0.1594,0.4417,-0.245
1764312959300,4.8526,6.4092,10.4566,0.0874,1.1642,-0.6836
1764312959310,0.7884,4.733,9.0562,0.0874,1.1642,-0.6836
1764312959320,0.7884,4.733,9.0562,0.3427,1.0203,-0.199
1764312959330,-1.5613,4.7587,6.1669,0.3427,1.0203,-0.199
1764312959340,-1.5613,4.7587,6.1669,0.0223,0.6909,0.6435
1764312959350,-0.0652,5.6746,5.3426,0.0223,0.6909,0.6435
1764312959360,-0.0652,5.6746,5.3426,0.0223,0.6909,0.6435
1764312959370,-0.0652,5.6746,5.3426,-0.4087,0.0182,0.9365
1764312959380,2.8684,5.8851,8.1595,-0.4087,0.0182,0.9365
1764312959390,2.8684,5.8851,8.1595,-0.1969,-0.0748,0.5545
1764312959400,4.0887,5.9037,9.0341,-0.1969,-0.0748,0.5545
1764312959410,4.0887,5.9037,9.0341,0.1323,-0.0438,-0.0035
1764312959420,2.8582,5.4383,8.1248,0.1323,-0.0438,-0.0035
1764312959430,2.8582,5.4383,8.1248,0.1607,0.0441,-0.2427
1764312959440,1.3256,5.1434,7.3567,0.1607,0.0441,-0.2427
1764312959450,1.3256,5.1434,7.3567,0.0293,0.0133,-0.1602
1764312959460,0.9811,5.2499,7.4004,0.0293,0.0133,-0.1602
1764312959470,0.9811,5.2499,7.4004,-0.0188,-0.1029,-0.0267
1764312959480,1.6062,5.3659,7.8227,-0.0188,-0.1029,-0.0267
1764312959490,1.6062,5.3659,7.8227,0.0108,-0.1188,-0.0148
1764312959500,1.9801,5.3521,8.0076,0.0108,-0.1188,-0.0148
1764312959510,1.9801,5.3521,8.0076,0.0108,-0.1188,-0.0148
1764312959520,1.9801,5.3521,8.0076,0.0275,-0.0596,-0.0544
1764312959530,1.7001,5.3629,7.657,0.0275,-0.0596,-0.0544
1764312959540,1.7001,5.3629,7.657,-0.0214,-0.0857,-0.0655
1764312959550,1.9208,5.5161,8.2732,-0.0214,-0.0857,-0.0655
1764312959560,1.9208,5.5161,8.2732,-0.0078,-0.0602,-0.0814
1764312959570,1.9083,5.4078,8.3976,-0.0078,-0.0602,-0.0814
1764312959580,1.9083,5.4078,8.3976,0.0538,0.0185,-0.1089
1764312959590,1.3555,5.5065,7.596,0.0538,0.0185,-0.1089
1764312959600,1.3555,5.5065,7.596,-0.016,-0.0492,-0.0368
1764312959610,1.1115,5.2175,7.5422,-0.016,-0.0492,-0.0368
1764312959620,1.1115,5.2175,7.5422,-0.1402,-0.0632,0.0768
1764312959630,1.3334,5.1529,7.7444,-0.1402,-0.0632,0.0768
1764312959640,1.3334,5.1529,7.7444,-0.1402,-0.0632,0.0768
1764312959650,1.724,5.2893,7.9777,-0.2046,-0.0324,0.1529
1764312959660,1.724,5.2893,7.9777,-0.2046,-0.0324,0.1529
1764312959670,1.724,5.2893,7.9777,-0.3154,0.0292,0.0999
1764312959680,2.7218,5.4861,9.3817,-0.3154,0.0292,0.0999
1764312959690,2.7218,5.4861,9.3817,-0.1765,0.2181,-0.079
1764312959700,2.6082,5.3228,9.3224,-0.1765,0.2181,-0.079
1764312959710,2.6082,5.3228,9.3224,0.0487,0.3015,-0.1985
1764312959720,1.544,5.263,8.6955,0.0487,0.3015,-0.1985
1764312959730,1.544,5.263,8.6955,0.2004,0.0487,-0.1542
1764312959740,1.1246,5.1541,8.6417,0.2004,0.0487,-0.1542
1764312959750,1.1246,5.1541,8.6417,0.3726,-0.2447,-0.0386
1764312959760,1.5254,5.2116,8.8259,0.3726,-0.2447,-0.0386
1764312959770,1.5254,5.2116,8.8259,0.3726,-0.2447,-0.0386
1764312959780,2.1212,5.3791,8.5693,0.5765,-0.3691,-0.015
1764312959790,2.1212,5.3791,8.5693,0.5765,-0.3691,-0.015
1764312959800,2.1212,5.3791,8.5693,0.6449,-0.2579,-0.0809
1764312959810,2.2798,5.5657,7.9202,0.6449,-0.2579,-0.0809
1764312959820,2.2798,5.5657,7.9202,0.5327,-0.0412,-0.1484
1764312959830,2.19,5.8564,7.4931,0.5327,-0.0412,-0.1484
1764312959840,2.19,5.8564,7.4931,0.3074,0.1562,-0.2202
1764312959850,1.9872,6.0072,7.5966,0.3074,0.1562,-0.2202
1764312959860,1.9872,6.0072,7.5966,0.2393,0.0927,-0.3293
1764312959870,1.7785,6.0885,7.9478,0.2393,0.0927,-0.3293
1764312959880,1.7785,6.0885,7.9478,0.5049,-0.3399,-0.4412
1764312959890,1.6002,5.732,8.3701,0.5049,-0.3399,-0.4412
1764312959900,1.6002,5.732,8.3701,0.5049,-0.3399,-0.4412
1764312959910,1.6002,5.732,8.3701,0.8888,-0.684,-0.4694
1764312959920,1.3178,5.6853,8.0674,0.8888,-0.684,-0.4694
1764312959930,1.3178,5.6853,8.0674,1.0774,-0.8256,-0.3972
1764312959940,0.7932,5.9163,7.3974,1.0774,-0.8256,-0.3972
1764312959950,0.7932,5.9163,7.3974,1.1516,-1.0424,-0.21
1764312959960,0.8249,5.9785,7.084,1.1516,-1.0424,-0.21
1764312959970,0.8249,5.9785,7.084,1.273,-1.3254,-0.0519
1764312959980,1.3322,5.9868,7.0905,1.273,-1.3254,-0.0519
1764312959990,1.3322,5.9868,7.0905,1.358,-1.3738,0.0531
1764312960000,2.0495,6.3745,6.9182,1.358,-1.3738,0.0531
1764312960010,2.0495,6.3745,6.9182,1.2795,-0.9975,0.075
1764312960020,2.1374,6.585,6.2471,1.2795,-0.9975,0.075
1764312960030,2.1374,6.585,6.2471,0.8192,-0.1277,0.2069
1764312960040,2.0471,7.1641,6.478,0.8192,-0.1277,0.2069
1764312960050,2.0471,7.1641,6.478,0.8192,-0.1277,0.2069
1764312960060,2.0471,7.1641,6.478,-0.4803,2.5936,0.6538
1764312960070,4.8305,8.6094,4.5194,-0.4803,2.5936,0.6538
1764312960080,4.8305,8.6094,4.5194,-3.5794,7.699,0.752
1764312960090,7.8993,10.3196,2.4012,-3.5794,7.699,0.752
1764312960100,7.8993,10.3196,2.4012,-7.3785,13.436,0.0434
1764312960110,7.8102,10.334,-1.1067,-7.3785,13.436,0.0434
1764312960120,7.8102,10.334,-1.1067,-9.7763,16.316,-1.4577
1764312960130,3.0646,7.4865,-1.9651,-9.7763,16.316,-1.4577
1764312960140,3.0646,7.4865,-1.9651,-8.8307,14.1592,-3.0378
1764312960150,-5.534,0.8548,-1.2778,-8.8307,14.1592,-3.0378
1764312960160,-5.534,0.8548,-1.2778,-4.9853,7.0845,-3.4818
1764312960170,-12.6754,-4.7821,2.9755,-4.9853,7.0845,-3.4818
1764312960180,-12.6754,-4.7821,2.9755,-4.9853,7.0845,-3.4818
1764312960190,-15.3583,-7.6505,9.9177,-0.9499,-0.2384,-2.7881
1764312960200,-15.3583,-7.6505,9.9177,-0.9499,-0.2384,-2.7881
1764312960210,-15.3583,-7.6505,9.9177,1.3405,-2.5879,-1.0844
1764312960220,-11.141,-5.0889,8.7894,1.3405,-2.5879,-1.0844
1764312960230,-11.141,-5.0889,8.7894,1.08,-1.4919,-0.1362
1764312960240,-7.3968,-1.6349,5.0853,1.08,-1.4919,-0.1362
1764312960250,-7.3968,-1.6349,5.0853,-0.1332,-0.8355,-0.4052
1764312960260,-8.0178,-0.7448,7.2646,-0.1332,-0.8355,-0.4052
1764312960270,-8.0178,-0.7448,7.2646,-0.0434,-1.5165,-0.763
1764312960280,-9.6538,-1.4195,9.7567,-0.0434,-1.5165,-0.763
1764312960290,-9.6538,-1.4195,9.7567,1.3393,-3.3975,-0.6845
1764312960300,-9.4911,-1.6684,10.5847,1.3393,-3.3975,-0.6845
1764312960310,-9.4911,-1.6684,10.5847,1.3393,-3.3975,-0.6845
1764312960320,-7.1103,-0.6891,10.139,3.0522,-5.6734,-0.4174
1764312960330,-7.1103,-0.6891,10.139,3.0522,-5.6734,-0.4174
1764312960340,-7.1103,-0.6891,10.139,4.4078,-7.7635,-0.4241
1764312960350,-4.1749,0.3075,10.7791,4.4078,-7.7635,-0.4241
1764312960360,-4.1749,0.3075,10.7791,5.2166,-8.9342,-0.6306
1764312960370,-1.8293,1.2843,11.9988,5.2166,-8.9342,-0.6306
1764312960380,-1.8293,1.2843,11.9988,5.6468,-8.8452,-0.7475
1764312960390,-0.5109,2.2953,11.924,5.6468,-8.8452,-0.7475
1764312960400,-0.5109,2.2953,11.924,5.287,-7.2042,-0.6196
1764312960410,0.6203,3.3535,9.9894,5.287,-7.2042,-0.6196
1764312960420,0.6203,3.3535,9.9894,3.8414,-4.3089,-0.3244
1764312960430,1.9161,4.7204,7.526,3.8414,-4.3089,-0.3244
1764312960440,1.9161,4.7204,7.526,3.8414,-4.3089,-0.3244
1764312960450,2.0806,5.5597,5.866,2.2254,-1.8259,-0.1663
1764312960460,2.0806,5.5597,5.866,2.2254,-1.8259,-0.1663
1764312960470,2.0806,5.5597,5.866,0.9606,-0.2208,-0.0805
1764312960480,1.7133,5.5274,4.6403,0.9606,-0.2208,-0.0805
1764312960490,1.7133,5.5274,4.6403,0.1058,0.3615,-0.0576
1764312960500,1.2568,5.1811,5.2068,0.1058,0.3615,-0.0576
1764312960510,1.2568,5.1811,5.2068,-0.0049,-0.0202,-0.0719
1764312960520,1.1677,4.8861,6.5468,-0.0049,-0.0202,-0.0719
1764312960530,1.1677,4.8861,6.5468,0.3024,-0.5328,-0.0753
1764312960540,1.2407,4.7701,7.2341,0.3024,-0.5328,-0.0753
1764312960550,1.2407,4.7701,7.2341,0.4453,-0.6657,-0.0035
1764312960560,1.319,4.8221,7.6696,0.4453,-0.6657,-0.0035
1764312960570,1.319,4.8221,7.6696,0.2842,-0.274,0.1709
1764312960580,1.922,5.1434,7.8185,0.2842,-0.274,0.1709
1764312960590,1.922,5.1434,7.8185,0.2842,-0.274,0.1709
1764312960600,1.922,5.1434,7.8185,-0.0444,0.2931,0.2812
1764312960610,2.6004,5.5406,7.9059,-0.0444,0.2931,0.2812
1764312960620,2.6004,5.5406,7.9059,-0.2005,0.4192,0.2083
1764312960630,3.5115,5.9665,8.5711,-0.2005,0.4192,0.2083
1764312960640,3.5115,5.9665,8.5711,-0.0757,0.3097,-0.0759
1764312960650,3.8124,6.1316,10.0176,-0.0757,0.3097,-0.0759
1764312960660,3.8124,6.1316,10.0176,0.1784,0.6393,-0.2984
1764312960670,1.7755,4.6134,10.541,0.1784,0.6393,-0.2984
1764312960680,1.7755,4.6134,10.541,0.4739,1.1732,0.1814
1764312960690,0.67,5.8271,7.4189,0.4739,1.1732,0.1814
1764312960700,0.67,5.8271,7.4189,0.3199,0.8566,0.6248
1764312960710,1.6355,6.2901,6.655,0.3199,0.8566,0.6248
1764312960720,1.6355,6.2901,6.655,0.3199,0.8566,0.6248
1764312960730,2.918,6.3123,7.0223,0.1526,0.5108,0.5851
1764312960740,2.918,6.3123,7.0223,0.1526,0.5108,0.5851
1764312960750,2.918,6.3123,7.0223,0.1686,0.2104,0.3024
1764312960760,3.4839,6.4971,7.3908,0.1686,0.2104,0.3024
1764312960770,3.4839,6.4971,7.3908,0.2596,0.0776,-0.0944
1764312960780,2.589,6.0838,7.124,0.2596,0.0776,-0.0944
1764312960790,2.589,6.0838,7.124,0.2523,0.071,-0.2581
1764312960800,1.6253,5.7093,6.4672,0.2523,0.071,-0.2581
1764312960810,1.6253,5.7093,6.4672,0.1465,-0.0156,-0.2266
1764312960820,1.0828,5.5813,6.5438,0.1465,-0.0156,-0.2266
1764312960830,1.0828,5.5813,6.5438,0.0594,-0.1174,-0.1046
1764312960840,1.203,5.5083,6.6838,0.0594,-0.1174,-0.1046
1764312960850,1.203,5.5083,6.6838,0.0594,-0.1174,-0.1046
1764312960860,1.203,5.5083,6.6838,0.0069,-0.1536,-0.0174
1764312960870,1.1821,5.5053,6.8836,0.0069,-0.1536,-0.0174
1764312960880,1.1821,5.5053,6.8836,-0.1043,-0.1184,0.0612
1764312960890,1.7133,5.4682,7.7922,-0.1043,-0.1184,0.0612
1764312960900,1.7133,5.4682,7.7922,-0.102,0.0739,0.0722
1764312960910,1.7545,5.7045,7.5841,-0.102,0.0739,0.0722
1764312960920,1.7545,5.7045,7.5841,-0.1287,0.1064,0.0316
1764312960930,1.7533,5.6818,7.5165,-0.1287,0.1064,0.0316
1764312960940,1.7533,5.6818,7.5165,-0.2387,0.2291,0.025
1764312960950,1.3866,5.7476,7.2999,-0.2387,0.2291,0.025
1764312960960,1.3866,5.7476,7.2999,-0.4081,0.2694,0.086
1764312960970,1.404,5.9019,7.617,-0.4081,0.2694,0.086
1764312960980,1.404,5.9019,7.617,-0.4081,0.2694,0.086
1764312960990,2.3593,5.8307,9.3769,-0.5321,0.197,0.1098
1764312961000,2.3593,5.8307,9.3769,-0.5321,0.197,0.1098
1764312961010,2.3593,5.8307,9.3769,-0.2986,0.1915,0.0327
1764312961020,2.9402,5.6028,9.6736,-0.2986,0.1915,0.0327
1764312961030,2.9402,5.6028,9.6736,0.0186,0.2001,-0.1159
1764312961040,1.9238,5.7111,8.7643,0.0186,0.2001,-0.1159
1764312961050,1.9238,5.7111,8.7643,0.2016,-0.0226,-0.1203
1764312961060,1.5876,5.6865,8.5394,0.2016,-0.0226,-0.1203
1764312961070,1.5876,5.6865,8.5394,0.314,-0.1761,-0.0539
1764312961080,1.8903,5.7171,8.3874,0.314,-0.1761,-0.0539
1764312961090,1.8903,5.7171,8.3874,0.38,-0.1394,-0.068
1764312961100,1.9143,5.8403,7.9502,0.38,-0.1394,-0.068
1764312961110,1.9143,5.8403,7.9502,0.3709,-0.1542,-0.1203
1764312961120,1.718,5.5513,8.0219,0.3709,-0.1542,-0.1203
1764312961130,1.718,5.5513,8.0219,0.3709,-0.1542,-0.1203
1764312961140,1.4261,5.4299,8.1338,0.4166,-0.1428,-0.1367
1764312961150,1.4261,5.4299,8.1338,0.4166,-0.1428,-0.1367
1764312961160,1.4261,5.4299,8.1338,0.507,-0.1814,-0.0922
1764312961170,1.4369,5.6459,7.8449,0.507,-0.1814,-0.0922
1764312961180,1.4369,5.6459,7.8449,0.5504,-0.2373,-0.0715
1764312961190,1.4423,5.7075,7.8179,0.5504,-0.2373,-0.0715
1764312961200,1.4423,5.7075,7.8179,0.565,-0.2501,-0.0504
1764312961210,1.5488,5.8786,8.0225,0.565,-0.2501,-0.0504
1764312961220,1.5488,5.8786,8.0225,0.673,-0.3151,-0.0585
1764312961230,1.7192,6.1669,7.5051,0.673,-0.3151,-0.0585
1764312961240,1.7192,6.1669,7.5051,0.7317,-0.4209,-0.0878
1764312961250,1.7312,6.21,7.0146,0.7317,-0.4209,-0.0878
1764312961260,1.7312,6.21,7.0146,0.7317,-0.4209,-0.0878
1764312961270,1.7312,6.21,7.0146,0.6571,-0.4128,-0.0576
1764312961280,1.8694,6.3159,6.9667,0.6571,-0.4128,-0.0576
1764312961290,1.8694,6.3159,6.9667,0.6322,-0.4734,-0.0328
1764312961300,1.6881,6.4834,6.7561,0.6322,-0.4734,-0.0328
1764312961310,1.6881,6.4834,6.7561,0.7749,-0.8778,-0.0666
1764312961320,0.8339,6.2465,7.5535,0.7749,-0.8778,-0.0666
1764312961330,0.8339,6.2465,7.5535,0.9762,-0.71,0.177
1764312961340,1.8395,6.5916,6.1005,0.9762,-0.71,0.177
1764312961350,1.8395,6.5916,6.1005,0.7624,-0.5707,0.2909
1764312961360,2.4873,6.7944,6.0526,0.7624,-0.5707,0.2909
1764312961370,2.4873,6.7944,6.0526,0.7624,-0.5707,0.2909
1764312961380,3.332,7.349,5.8062,0.7414,-0.6151,0.2156
1764312961390,3.332,7.349,5.8062,0.7414,-0.6151,0.2156
1764312961400,3.0849,7.2437,5.6937,1.0091,-1.1693,-0.0588
1764312961410,3.0849,7.2437,5.6937,1.0091,-1.1693,-0.0588
1764312961420,3.0849,7.2437,5.6937,1.1715,-1.4565,-0.197
1764312961430,2.6501,7.1677,5.476,1.1715,-1.4565,-0.197
1764312961440,2.6501,7.1677,5.476,0.8876,-1.0117,-0.1167
1764312961450,2.6512,7.346,5.272,0.8876,-1.0117,-0.1167
1764312961460,2.6512,7.346,5.272,0.2353,0.0996,0.058
1764312961470,2.9635,7.5625,5.3551,0.2353,0.0996,0.058
1764312961480,2.9635,7.5625,5.3551,-0.8589,2.1041,0.3051
1764312961490,4.3394,8.4311,5.9498,-0.8589,2.1041,0.3051
1764312961500,4.3394,8.4311,5.9498,-2.8972,5.9988,0.5194
1764312961510,6.6389,9.1633,5.1733,-2.8972,5.9988,0.5194
1764312961520,6.6389,9.1633,5.1733,-2.8972,5.9988,0.5194
1764312961530,6.7926,9.795,3.1424,-6.0937,11.9476,0.2995
1764312961540,6.7926,9.795,3.1424,-6.0937,11.9476,0.2995
1764312961550,6.7926,9.795,3.1424,-8.9736,17.4808,-0.5982
1764312961560,3.4158,8.1338,-1.5182,-8.9736,17.4808,-0.5982
1764312961570,3.4158,8.1338,-1.5182,-9.1489,17.3592,-1.9989
1764312961580,-4.4489,3.5186,-4.9071,-9.1489,17.3592,-1.9989
1764312961590,-4.4489,3.5186,-4.9071,-5.462,8.865,-2.7284
1764312961600,-12.618,-2.1314,0.1693,-5.462,8.865,-2.7284
1764312961610,-12.618,-2.1314,0.1693,-0.5829,-0.9423,-2.1663
1764312961620,-14.1141,-5.0746,8.3109,-0.5829,-0.9423,-2.1663
1764312961630,-14.1141,-5.0746,8.3109,1.5307,-3.7217,-0.6535
1764312961640,-10.4871,-3.545,8.6255,1.5307,-3.7217,-0.6535
1764312961650,-10.4871,-3.545,8.6255,0.6959,-2.0968,0.3723
1764312961660,-5.6632,0.5342,6.9218,0.6959,-2.0968,0.3723
1764312961670,-5.6632,0.5342,6.9218,0.6959,-2.0968,0.3723
1764312961680,-5.6632,0.5342,6.9218,-0.6976,-0.6197,-0.0515
1764312961690,-6.3278,1.2072,9.0209,-0.6976,-0.6197,-0.0515
1764312961700,-6.3278,1.2072,9.0209,-0.7813,-0.5008,-0.4585
1764312961710,-8.0351,0.5252,10.8233,-0.7813,-0.5008,-0.4585
1764312961720,-8.0351,0.5252,10.8233,-0.0339,-1.0278,-0.4229
1764312961730,-8.211,0.4702,11.1063,-0.0339,-1.0278,-0.4229
1764312961740,-8.211,0.4702,11.1063,0.5724,-1.2683,-0.2515
1764312961750,-8.0189,0.5103,9.5821,0.5724,-1.2683,-0.2515
1764312961760,-8.0189,0.5103,9.5821,0.7321,-1.4662,-0.0634
1764312961770,-7.1115,0.5695,8.7882,0.7321,-1.4662,-0.0634
1764312961780,-7.1115,0.5695,8.7882,0.9024,-2.0137,0.0275
1764312961790,-6.4702,0.4624,9.2758,0.9024,-2.0137,0.0275
1764312961800,-6.4702,0.4624,9.2758,0.9024,-2.0137,0.0275
1764312961810,-5.9515,0.4211,9.2489,1.5314,-2.9352,0.117
1764312961820,-5.9515,0.4211,9.2489,1.5314,-2.9352,0.117
1764312961830,-5.9515,0.4211,9.2489,2.3683,-3.9859,0.2999
1764312961840,-4.4231,1.1551,9.0287,2.3683,-3.9859,0.2999
1764312961850,-4.4231,1.1551,9.0287,2.6996,-4.1879,0.3749
1764312961860,-2.7057,2.2265,8.8696,2.6996,-4.1879,0.3749
1764312961870,-2.7057,2.2265,8.8696,2.2938,-3.2814,0.2912
1764312961880,-1.2861,3.4923,8.2217,2.2938,-3.2814,0.2912
1764312961890,-1.2861,3.4923,8.2217,1.5357,-2.2344,0.0108
1764312961900,-1.1037,3.7502,8.0668,1.5357,-2.2344,0.0108
1764312961910,-1.1037,3.7502,8.0668,1.2975,-2.2713,-0.2857
1764312961920,-1.5284,3.6838,9.2973,1.2975,-2.2713,-0.2857
1764312961930,-1.5284,3.6838,9.2973,1.2975,-2.2713,-0.2857
1764312961940,-1.5505,3.5557,9.67,1.9169,-3.147,-0.4731
1764312961950,-1.5505,3.5557,9.67,1.9169,-3.147,-0.4731
1764312961960,-1.5505,3.5557,9.67,2.8188,-4.404,-0.5809
1764312961970,-0.9733,3.7484,9.1801,2.8188,-4.404,-0.5809
1764312961980,-0.9733,3.7484,9.1801,3.7014,-5.9135,-0.6978
1764312961990,0.0036,4.4088,9.2094,3.7014,-5.9135,-0.6978
1764312962000,0.0036,4.4088,9.2094,4.5965,-7.3563,-0.87
1764312962010,1.2538,5.2199,10.4997,4.5965,-7.3563,-0.87
1764312962020,1.2538,5.2199,10.4997,5.2066,-7.3635,-0.8871
1764312962030,1.5906,5.6985,9.0221,5.2066,-7.3635,-0.8871
1764312962040,1.5906,5.6985,9.0221,4.3819,-4.8921,-0.5554
1764312962050,2.0166,6.8321,4.94,4.3819,-4.8921,-0.5554
1764312962060,2.0166,6.8321,4.94,4.3819,-4.8921,-0.5554
1764312962070,2.659,7.7444,2.4616,2.2903,-1.7657,-0.0541
1764312962080,2.659,7.7444,2.4616,2.2903,-1.7657,-0.0541
1764312962090,2.659,7.7444,2.4616,0.3905,0.4206,0.2049
1764312962100,3.0694,8.0082,1.9364,0.3905,0.4206,0.2049
1764312962110,3.0694,8.0082,1.9364,-0.5626,0.9865,0.181
1764312962120,2.8457,7.4734,2.9898,-0.5626,0.9865,0.181
1764312962130,2.8457,7.4734,2.9898,-0.6562,0.6338,0.0861
1764312962140,2.4108,6.7765,4.5159,-0.6562,0.6338,0.0861
1764312962150,2.4108,6.7765,4.5159,-0.2873,0.0475,0.097
1764312962160,2.6495,6.5964,6.2728,-0.2873,0.0475,0.097
1764312962170,2.6495,6.5964,6.2728,0.1892,-0.1011,0.2039
1764312962180,3.5067,6.9852,5.537,0.1892,-0.1011,0.2039
1764312962190,3.5067,6.9852,5.537,0.1701,0.1341,0.2106
1764312962200,4.8401,7.7785,4.7043,0.1701,0.1341,0.2106
1764312962210,4.8401,7.7785,4.7043,0.1701,0.1341,0.2106
1764312962220,4.8401,7.7785,4.7043,-0.2059,0.4621,-0.0076
1764312962230,4.7198,7.9125,5.0028,-0.2059,0.4621,-0.0076
1764312962240,4.7198,7.9125,5.0028,-0.4937,0.7877,-0.212
1764312962250,2.7452,7.1432,5.6363,-0.4937,0.7877,-0.212
1764312962260,2.7452,7.1432,5.6363,-0.4972,0.9223,-0.1016
1764312962270,1.2078,7.0032,5.9761,-0.4972,0.9223,-0.1016
1764312962280,1.2078,7.0032,5.9761,-0.5075,0.974,0.4409
1764312962290,2.0626,7.4387,5.6148,-0.5075,0.974,0.4409
1764312962300,2.0626,7.4387,5.6148,-0.6017,0.8179,0.6944
1764312962310,3.8064,7.4381,6.402,-0.6017,0.8179,0.6944
1764312962320,3.8064,7.4381,6.402,-0.6017,0.8179,0.6944
1764312962330,4.2006,7.4812,6.7155,-0.4343,0.6513,0.4917
1764312962340,4.2006,7.4812,6.7155,-0.4343,0.6513,0.4917
1764312962350,3.6915,7.072,6.7621,-0.1939,0.4114,0.1912
1764312962360,3.6915,7.072,6.7621,-0.1939,0.4114,0.1912
1764312962370,3.6915,7.072,6.7621,-0.1524,0.5556,0.0803
1764312962380,3.0036,6.8435,6.4493,-0.1524,0.5556,0.0803
1764312962390,3.0036,6.8435,6.4493,-0.2498,0.7781,0.1086
1764312962400,2.7314,6.9553,5.866,-0.2498,0.7781,0.1086
1764312962410,2.7314,6.9553,5.866,-0.3015,0.6669,0.0983
1764312962420,2.6524,6.8542,5.6058,-0.3015,0.6669,0.0983
1764312962430,2.6524,6.8542,5.6058,-0.2749,0.3256,0.031
1764312962440,2.6381,6.6891,6.2225,-0.2749,0.3256,0.031
1764312962450,2.6381,6.6891,6.2225,-0.1558,0.089,-0.0145
1764312962460,2.6417,6.5456,6.7561,-0.1558,0.089,-0.0145
1764312962470,2.6417,6.5456,6.7561,-0.1558,0.089,-0.0145
1764312962480,2.6417,6.5456,6.7561,-0.0599,0.0803,-0.0108
1764312962490,2.8839,6.676,6.9362,-0.0599,0.0803,-0.0108
1764312962500,2.8839,6.676,6.9362,-0.0929,0.274,-0.0215
1764312962510,2.8744,6.8004,6.859,-0.0929,0.274,-0.0215
1764312962520,2.8744,6.8004,6.859,-0.1544,0.3968,-0.0582
1764312962530,2.6429,6.9045,6.7944,-0.1544,0.3968,-0.0582
1764312962540,2.6429,6.9045,6.7944,-0.0861,0.2083,-0.1118
1764312962550,2.4903,6.8195,7.142,-0.0861,0.2083,-0.1118
1764312962560,2.4903,6.8195,7.142,0.0837,0.0397,-0.159
1764312962570,2.2624,6.5641,7.2389,0.0837,0.0397,-0.159
1764312962580,2.2624,6.5641,7.2389,0.2083,0.0353,-0.1119
1764312962590,2.0435,6.5958,6.4337,0.2083,0.0353,-0.1119
1764312962600,2.0435,6.5958,6.4337,0.2083,0.0353,-0.1119
1764312962610,2.3575,6.8166,6.4624,0.173,-0.0463,-0.0634
1764312962620,2.3575,6.8166,6.4624,0.173,-0.0463,-0.0634
1764312962630,2.3575,6.8166,6.4624,0.1086,-0.0486,-0.0617
1764312962640,2.1619,6.5456,6.3517,0.1086,-0.0486,-0.0617
1764312962650,2.1619,6.5456,6.3517,0.0426,-0.0165,-0.0182
1764312962660,2.1691,6.722,6.7783,0.0426,-0.0165,-0.0182
1764312962670,2.1691,6.722,6.7783,0.0128,0.0954,0.0498
1764312962680,2.3294,6.6317,6.6616,0.0128,0.0954,0.0498
1764312962690,2.3294,6.6317,6.6616,-0.0415,0.2621,0.0939
1764312962700,2.6339,7.0798,6.1992,-0.0415,0.2621,0.0939
1764312962710,2.6339,7.0798,6.1992,-0.1631,0.2083,0.0478
1764312962720,3.0162,7.084,6.8877,-0.1631,0.2083,0.0478
1764312962730,3.0162,7.084,6.8877,-0.1394,0.2686,-0.0629
1764312962740,3.1406,6.9057,7.4925,-0.1394,0.2686,-0.0629
1764312962750,3.1406,6.9057,7.4925,-0.1394,0.2686,-0.0629
1764312962760,3.1406,6.9057,7.4925,-0.0171,0.3786,-0.1643
1764312962770,2.7308,6.8901,7.2903,-0.0171,0.3786,-0.1643
1764312962780,2.7308,6.8901,7.2903,0.1249,0.3149,-0.2088
1764312962790,2.2331,6.8369,6.7992,0.1249,0.3149,-0.2088
1764312962800,2.2331,6.8369,6.7992,0.1669,0.2054,-0.1797
1764312962810,2.0423,6.9153,6.743,0.1669,0.2054,-0.1797
1764312962820,2.0423,6.9153,6.743,0.2156,0.0993,-0.1791
1764312962830,2.6943,7.0475,7.2245,0.2156,0.0993,-0.1791
1764312962840,2.6943,7.0475,7.2245,0.3151,0.1663,-0.329
1764312962850,2.4281,6.9296,7.1055,0.3151,0.1663,-0.329
1764312962860,2.4281,6.9296,7.1055,0.5826,-0.1946,-0.4751
1764312962870,1.2837,6.6329,7.0672,0.5826,-0.1946,-0.4751
1764312962880,1.2837,6.6329,7.0672,0.5826,-0.1946,-0.4751
1764312962890,0.5264,6.2345,7.2808,0.9818,-0.763,-0.4107
1764312962900,0.5264,6.2345,7.2808,0.9818,-0.763,-0.4107
1764312962910,0.5264,6.2345,7.2808,1.2338,-0.8099,-0.1017
1764312962920,0.2776,6.1436,6.5958,1.2338,-0.8099,-0.1017
1764312962930,0.2776,6.1436,6.5958,1.0539,-0.2025,0.3378
1764312962940,0.9715,6.877,5.6842,1.0539,-0.2025,0.3378
1764312962950,0.9715,6.877,5.6842,0.129,1.5893,0.7616
1764312962960,3.7376,8.5555,4.2508,0.129,1.5893,0.7616
1764312962970,3.7376,8.5555,4.2508,-2.3625,5.7459,0.7995
1764312962980,7.1055,10.7743,1.9442,-2.3625,5.7459,0.7995
1764312962990,7.1055,10.7743,1.9442,-2.3625,5.7459,0.7995
1764312963000,7.3974,10.2939,2.3019,-6.3747,11.2275,0.2091
1764312963010,7.3974,10.2939,2.3019,-6.3747,11.2275,0.2091
1764312963020,3.9685,8.2923,1.4088,-9.3762,16.2415,-0.9923
1764312963030,3.9685,8.2923,1.4088,-9.3762,16.2415,-0.9923
1764312963040,3.9685,8.2923,1.4088,-9.2491,17.1571,-2.3611
1764312963050,-4.06,3.1137,-2.6022,-9.2491,17.1571,-2.3611
1764312963060,-4.06,3.1137,-2.6022,-6.0983,11.1687,-2.7561
1764312963070,-12.4415,-1.468,-3.3846,-6.0983,11.1687,-2.7561
1764312963080,-12.4415,-1.468,-3.3846,-1.6365,1.2724,-2.3016
1764312963090,-13.483,-3.8315,4.1797,-1.6365,1.2724,-2.3016
1764312963100,-13.483,-3.8315,4.1797,1.1173,-3.8825,-1.3612
1764312963110,-11.5083,-4.9184,9.9649,1.1173,-3.8825,-1.3612
1764312963120,-11.5083,-4.9184,9.9649,1.1565,-2.8272,-0.1003
1764312963130,-7.3669,-0.8913,7.8419,1.1565,-2.8272,-0.1003
1764312963140,-7.3669,-0.8913,7.8419,-0.0641,-0.9673,-0.1083
1764312963150,-7.0349,0.9984,7.1916,-0.0641,-0.9673,-0.1083
1764312963160,-7.0349,0.9984,7.1916,-0.0641,-0.9673,-0.1083
1764312963170,-7.0349,0.9984,7.1916,-0.5756,-0.7454,-0.4768
1764312963180,-8.4209,0.6449,8.7338,-0.5756,-0.7454,-0.4768
1764312963190,-8.4209,0.6449,8.7338,0.1894,-2.0388,-0.5391
1764312963200,-8.9934,0.4893,8.3414,0.1894,-2.0388,-0.5391
1764312963210,-8.9934,0.4893,8.3414,1.4872,-4.4421,-0.4443
1764312963220,-8.0303,-0.1292,8.3617,1.4872,-4.4421,-0.4443
1764312963230,-8.0303,-0.1292,8.3617,2.954,-7.531,-0.3551
1764312963240,-5.799,-0.2363,12.39,2.954,-7.531,-0.3551
1764312963250,-5.799,-0.2363,12.39,4.8909,-9.7031,-0.3789
1764312963260,-3.1507,0.542,13.1737,4.8909,-9.7031,-0.3789
1764312963270,-3.1507,0.542,13.1737,6.3121,-10.8662,-0.522
1764312963280,-0.3846,2.4293,13.279,6.3121,-10.8662,-0.522
1764312963290,-0.3846,2.4293,13.279,6.3121,-10.8662,-0.522
1764312963300,1.2239,4.215,11.5125,7.1233,-10.8711,-0.8144
1764312963310,1.2239,4.215,11.5125,7.1233,-10.8711,-0.8144
1764312963320,1.2239,4.215,11.5125,6.7142,-8.9311,-0.8482
1764312963330,2.1093,5.7123,8.257,6.7142,-8.9311,-0.8482
1764312963340,2.1093,5.7123,8.257,4.6363,-4.9755,-0.5467
1764312963350,3.2542,6.8566,4.6774,4.6363,-4.9755,-0.5467
1764312963360,3.2542,6.8566,4.6774,1.6945,-0.5993,-0.2601
1764312963370,3.5683,7.3639,1.855,1.6945,-0.5993,-0.2601
1764312963380,3.5683,7.3639,1.855,-0.4478,1.6454,-0.2268
1764312963390,2.4921,6.9165,2.208,-0.4478,1.6454,-0.2268
1764312963400,2.4921,6.9165,2.208,-0.8467,1.2052,-0.3761
1764312963410,1.0116,5.8493,4.6756,-0.8467,1.2052,-0.3761
1764312963420,1.0116,5.8493,4.6756,-0.8467,1.2052,-0.3761
1764312963430,1.0116,5.8493,4.6756,0.0301,-0.3036,-0.2874
1764312963440,1.0205,5.5035,6.7651,0.0301,-0.3036,-0.2874
1764312963450,1.0205,5.5035,6.7651,0.8176,-0.8954,-0.0341
1764312963460,1.8317,5.6853,6.3757,0.8176,-0.8954,-0.0341
1764312963470,1.8317,5.6853,6.3757,0.8213,-0.4791,0.2282
1764312963480,2.817,6.3571,5.138,0.8213,-0.4791,0.2282
1764312963490,2.817,6.3571,5.138,0.2926,0.2508,0.3512
1764312963500,3.7406,7.1342,3.9805,0.2926,0.2508,0.3512
1764312963510,3.7406,7.1342,3.9805,-0.3995,0.6069,0.2555
1764312963520,4.8784,7.7115,5.5418,-0.3995,0.6069,0.2555
1764312963530,4.8784,7.7115,5.5418,-0.3995,0.6069,0.2555
1764312963540,4.5434,7.3238,8.1147,-0.6296,0.8077,-0.118
1764312963550,4.5434,7.3238,8.1147,-0.6296,0.8077,-0.118
1764312963560,1.7671,6.1268,7.3496,-0.3804,1.2993,-0.3131
1764312963570,1.7671,6.1268,7.3496,-0.3804,1.2993,-0.3131
1764312963580,1.7671,6.1268,7.3496,-0.1468,1.3902,0.0499
1764312963590,0.0467,6.9117,4.663,-0.1468,1.3902,0.0499
1764312963600,0.0467,6.9117,4.663,-0.4798,0.8502,0.7019
1764312963610,1.7964,7.2568,5.3252,-0.4798,0.8502,0.7019
1764312963620,1.7964,7.2568,5.3252,-0.6326,0.3735,0.8737
1764312963630,4.2036,6.9595,7.5248,-0.6326,0.3735,0.8737
1764312963640,4.2036,6.9595,7.5248,-0.3288,0.2734,0.4739
1764312963650,4.5212,7.0098,8.0686,-0.3288,0.2734,0.4739
1764312963660,4.5212,7.0098,8.0686,0.0426,0.2266,0.0605
1764312963670,3.4199,6.6054,6.7974,0.0426,0.2266,0.0605
1764312963680,3.4199,6.6054,6.7974,0.0426,0.2266,0.0605
1764312963690,2.6094,6.4475,6.2596,0.1037,0.1619,-0.1008
1764312963700,2.6094,6.4475,6.2596,0.1037,0.1619,-0.1008
1764312963710,2.6094,6.4475,6.2596,-0.0005,0.1428,-0.0614
1764312963720,2.4395,6.5402,6.3583,-0.0005,0.1428,-0.0614
1764312963730,2.4395,6.5402,6.3583,-0.0507,0.0854,-0.0185
1764312963740,2.6734,6.5432,6.7286,-0.0507,0.0854,-0.0185
1764312963750,2.6734,6.5432,6.7286,-0.0507,0.1492,0.0017
1764312963760,2.7314,6.5288,6.4092,-0.0507,0.1492,0.0017
1764312963770,2.7314,6.5288,6.4092,-0.0967,0.1891,-0.0162
1764312963780,2.8158,6.6174,6.5192,-0.0967,0.1891,-0.0162
1764312963790,2.8158,6.6174,6.5192,-0.1458,0.1512,-0.0565
1764312963800,2.8361,6.4588,7.075,-0.1458,0.1512,-0.0565
1764312963810,2.8361,6.4588,7.075,-0.0689,0.1591,-0.1045
1764312963820,2.3085,6.4618,6.7555,-0.0689,0.1591,-0.1045
1764312963830,2.3085,6.4618,6.7555,-0.0689,0.1591,-0.1045
1764312963840,2.3085,6.4618,6.7555,-0.0522,0.1093,-0.0761
1764312963850,2.0183,6.3446,6.7442,-0.0522,0.1093,-0.0761
1764312963860,2.0183,6.3446,6.7442,-0.1336,0.1885,0.0078
